subject,age,gender,condition,phase,trial,stimulus,congruency,rt,correct,
1,20,m,1,practice,0,XXXXX,baseline,200,0,
1,20,m,1,practice,1,RED,incongruent,1288,0,
1,20,m,1,practice,2,XXXXX,baseline,1070,1,
1,20,m,1,practice,3,BLUE,incongruent,1250,0,
1,20,m,1,practice,4,BLUE,congruent,705,1,
1,20,m,1,practice,5,XXXX,baseline,690,1,
1,20,m,1,practice,6,XXXXX,baseline,633,1,
1,20,m,1,practice,7,XXXXX,baseline,718,1,
1,20,m,1,practice,8,BLUE,incongruent,244,999,
1,20,m,1,practice,9,RED,incongruent,1030,0,
1,20,m,1,practice,10,GREEN,congruent,829,1,
1,20,m,1,practice,11,GREEN,incongruent,700,1,
1,20,m,1,practice,12,GREEN,congruent,774,1,
1,20,m,1,practice,13,XXXXX,baseline,533,0,
1,20,m,1,practice,14,XXX,baseline,1146,1,
1,20,m,1,practice,15,BLUE,incongruent,855,1,
1,20,m,1,practice,16,GREEN,incongruent,1060,999,
1,20,m,1,practice,17,BLUE,congruent,201,999,
1,20,m,1,practice,18,XXX,baseline,200,999,
1,20,m,1,practice,19,RED,congruent,201,999,
1,20,m,1,practice,20,XXXX,baseline,200,999,
1,20,m,1,practice,21,BROWN,congruent,627,999,
1,20,m,1,practice,22,BLUE,congruent,863,1,
1,20,m,1,practice,23,XXXXX,baseline,867,1,
1,20,m,1,practice,24,RED,congruent,828,1,
1,20,m,1,practice,25,XXX,baseline,905,1,
1,20,m,1,practice,26,BLUE,incongruent,1153,1,
1,20,m,1,practice,27,RED,incongruent,1037,1,
1,20,m,1,practice,28,BLUE,incongruent,349,999,
1,20,m,1,practice,29,BROWN,incongruent,1601,1,
1,20,m,1,practice,30,BROWN,congruent,200,999,
1,20,m,1,practice,31,XXX,baseline,817,1,
1,20,m,1,practice,32,XXXXX,baseline,1177,1,
1,20,m,1,practice,33,BROWN,congruent,783,1,
1,20,m,1,practice,34,GREEN,congruent,979,1,
1,20,m,1,practice,35,BLUE,congruent,627,1,
1,20,m,1,practice,36,BROWN,incongruent,1168,1,
1,20,m,1,practice,37,XXXXX,baseline,945,1,
1,20,m,1,practice,38,RED,incongruent,909,1,
1,20,m,1,practice,39,XXXXX,baseline,444,1,
1,20,m,1,practice,40,GREEN,congruent,1036,1,
1,20,m,1,practice,41,BROWN,incongruent,1354,1,
1,20,m,1,practice,42,BROWN,congruent,200,999,
1,20,m,1,practice,43,GREEN,congruent,919,1,
1,20,m,1,practice,44,RED,incongruent,790,1,
1,20,m,1,practice,45,XXXXX,baseline,469,1,
1,20,m,1,practice,46,RED,congruent,934,1,
1,20,m,1,practice,47,BLUE,incongruent,897,1,
1,20,m,1,standing,0,RED,congruent,468,1,
1,20,m,1,standing,1,GREEN,incongruent,200,999,
1,20,m,1,standing,2,RED,incongruent,202,1,
1,20,m,1,standing,3,GREEN,incongruent,200,999,
1,20,m,1,standing,4,RED,incongruent,201,999,
1,20,m,1,standing,5,XXXXX,baseline,650,1,
1,20,m,1,standing,6,GREEN,congruent,581,1,
1,20,m,1,standing,7,GREEN,incongruent,854,1,
1,20,m,1,standing,8,RED,incongruent,650,1,
1,20,m,1,standing,9,XXXX,baseline,200,999,
1,20,m,1,standing,10,RED,incongruent,1195,1,
1,20,m,1,standing,11,BLUE,incongruent,1129,0,
1,20,m,1,standing,12,BLUE,congruent,898,1,
1,20,m,1,standing,13,BROWN,congruent,732,1,
1,20,m,1,standing,14,BROWN,congruent,624,1,
1,20,m,1,standing,15,BROWN,congruent,660,1,
1,20,m,1,standing,16,RED,congruent,797,1,
1,20,m,1,standing,17,XXX,baseline,201,999,
1,20,m,1,standing,18,XXXX,baseline,201,999,
1,20,m,1,standing,19,XXXX,baseline,976,1,
1,20,m,1,standing,20,XXXX,baseline,1023,1,
1,20,m,1,standing,21,BROWN,incongruent,1060,1,
1,20,m,1,standing,22,GREEN,incongruent,852,1,
1,20,m,1,standing,23,XXXXX,baseline,877,1,
1,20,m,1,standing,24,GREEN,incongruent,1023,1,
1,20,m,1,standing,25,BROWN,congruent,201,999,
1,20,m,1,standing,26,RED,congruent,1013,1,
1,20,m,1,standing,27,BROWN,congruent,876,1,
1,20,m,1,standing,28,XXXX,baseline,781,1,
1,20,m,1,standing,29,XXXXX,baseline,828,1,
1,20,m,1,standing,30,BROWN,incongruent,1137,1,
1,20,m,1,standing,31,XXXXX,baseline,958,1,
1,20,m,1,standing,32,GREEN,incongruent,1288,1,
1,20,m,1,standing,33,XXXXX,baseline,200,999,
1,20,m,1,standing,34,BROWN,incongruent,200,1,
1,20,m,1,standing,35,XXXXX,baseline,908,1,
1,20,m,1,standing,36,XXXXX,baseline,792,1,
1,20,m,1,standing,37,GREEN,congruent,1590,1,
1,20,m,1,standing,38,GREEN,congruent,915,1,
1,20,m,1,standing,39,BLUE,incongruent,1063,1,
1,20,m,1,standing,40,BLUE,congruent,916,1,
1,20,m,1,standing,41,XXXX,baseline,892,1,
1,20,m,1,standing,42,BLUE,congruent,950,1,
1,20,m,1,standing,43,BLUE,incongruent,711,1,
1,20,m,1,standing,44,BLUE,congruent,910,1,
1,20,m,1,standing,45,RED,incongruent,641,1,
1,20,m,1,standing,46,BROWN,incongruent,1397,1,
1,20,m,1,standing,47,RED,congruent,200,1,
1,20,m,1,standing,48,GREEN,congruent,983,1,
1,20,m,1,standing,49,XXX,baseline,1172,1,
1,20,m,1,standing,50,BROWN,congruent,1197,1,
1,20,m,1,standing,51,BROWN,incongruent,1111,1,
1,20,m,1,standing,52,BROWN,congruent,1009,1,
1,20,m,1,standing,53,XXXXX,baseline,902,1,
1,20,m,1,standing,54,GREEN,incongruent,899,1,
1,20,m,1,standing,55,BROWN,congruent,1636,1,
1,20,m,1,standing,56,GREEN,congruent,816,1,
1,20,m,1,standing,57,RED,incongruent,871,1,
1,20,m,1,standing,58,GREEN,incongruent,877,1,
1,20,m,1,standing,59,RED,congruent,1136,1,
1,20,m,1,standing,60,GREEN,congruent,268,999,
1,20,m,1,standing,61,BLUE,congruent,200,999,
1,20,m,1,standing,62,RED,incongruent,1093,1,
1,20,m,1,standing,63,BROWN,congruent,957,1,
1,20,m,1,standing,64,XXX,baseline,1105,1,
1,20,m,1,standing,65,XXX,baseline,1152,1,
1,20,m,1,standing,66,XXXXX,baseline,751,1,
1,20,m,1,standing,67,BROWN,incongruent,839,1,
1,20,m,1,standing,68,BROWN,incongruent,865,1,
1,20,m,1,standing,69,XXXXX,baseline,708,1,
1,20,m,1,standing,70,XXX,baseline,1140,1,
1,20,m,1,standing,71,XXX,baseline,790,1,
1,20,m,1,standing,72,GREEN,incongruent,1019,1,
1,20,m,1,standing,73,XXXX,baseline,711,1,
1,20,m,1,standing,74,RED,incongruent,817,1,
1,20,m,1,standing,75,XXXXX,baseline,701,1,
1,20,m,1,standing,76,XXXXX,baseline,779,1,
1,20,m,1,standing,77,XXXX,baseline,775,1,
1,20,m,1,standing,78,XXXXX,baseline,770,1,
1,20,m,1,standing,79,BLUE,congruent,532,1,
1,20,m,1,standing,80,BLUE,congruent,751,1,
1,20,m,1,standing,81,XXX,baseline,878,1,
1,20,m,1,standing,82,XXXX,baseline,823,0,
1,20,m,1,standing,83,XXX,baseline,1063,1,
1,20,m,1,standing,84,BROWN,incongruent,1017,1,
1,20,m,1,standing,85,BLUE,incongruent,993,1,
1,20,m,1,standing,86,BROWN,incongruent,947,1,
1,20,m,1,standing,87,RED,congruent,936,1,
1,20,m,1,standing,88,GREEN,congruent,1145,1,
1,20,m,1,standing,89,GREEN,incongruent,1253,1,
1,20,m,1,standing,90,XXXXX,baseline,1067,1,
1,20,m,1,standing,91,BLUE,congruent,990,1,
1,20,m,1,standing,92,BLUE,incongruent,854,1,
1,20,m,1,standing,93,GREEN,incongruent,921,1,
1,20,m,1,standing,94,RED,incongruent,987,1,
1,20,m,1,standing,95,BLUE,congruent,1175,1,
1,20,m,1,standing,96,XXXXX,baseline,1475,1,
1,20,m,1,standing,97,XXXX,baseline,1629,1,
1,20,m,1,standing,98,XXXXX,baseline,1518,1,
1,20,m,1,standing,99,RED,incongruent,1792,1,
1,20,m,1,standing,100,BLUE,incongruent,1133,1,
1,20,m,1,standing,101,RED,congruent,782,1,
1,20,m,1,standing,102,RED,congruent,1039,1,
1,20,m,1,standing,103,XXX,baseline,1187,1,
1,20,m,1,standing,104,XXXX,baseline,865,1,
1,20,m,1,standing,105,GREEN,congruent,1003,1,
1,20,m,1,standing,106,BROWN,congruent,1293,1,
1,20,m,1,standing,107,BLUE,congruent,918,1,
1,20,m,1,sitting,0,XXXXX,baseline,743,1,
1,20,m,1,sitting,1,XXX,baseline,215,1,
1,20,m,1,sitting,2,BROWN,congruent,200,1,
1,20,m,1,sitting,3,XXXXX,baseline,200,999,
1,20,m,1,sitting,4,GREEN,incongruent,201,999,
1,20,m,1,sitting,5,BROWN,congruent,958,1,
1,20,m,1,sitting,6,BLUE,congruent,201,999,
1,20,m,1,sitting,7,XXXX,baseline,822,1,
1,20,m,1,sitting,8,BLUE,congruent,796,1,
1,20,m,1,sitting,9,BLUE,incongruent,1422,1,
1,20,m,1,sitting,10,RED,incongruent,857,1,
1,20,m,1,sitting,11,BLUE,congruent,1160,1,
1,20,m,1,sitting,12,XXX,baseline,708,1,
1,20,m,1,sitting,13,RED,incongruent,1781,1,
1,20,m,1,sitting,14,GREEN,incongruent,1092,1,
1,20,m,1,sitting,15,RED,incongruent,720,1,
1,20,m,1,sitting,16,RED,congruent,1030,1,
1,20,m,1,sitting,17,BLUE,incongruent,1077,1,
1,20,m,1,sitting,18,XXXXX,baseline,1173,1,
1,20,m,1,sitting,19,XXXX,baseline,1463,1,
1,20,m,1,sitting,20,BLUE,incongruent,1060,1,
1,20,m,1,sitting,21,RED,congruent,1494,1,
1,20,m,1,sitting,22,GREEN,congruent,1029,1,
1,20,m,1,sitting,23,GREEN,incongruent,1634,1,
1,20,m,1,sitting,24,BLUE,incongruent,1599,1,
1,20,m,1,sitting,25,XXXXX,baseline,1436,1,
1,20,m,1,sitting,26,XXXXX,baseline,1616,1,
1,20,m,1,sitting,27,BLUE,incongruent,1578,1,
1,20,m,1,sitting,28,XXXXX,baseline,953,1,
1,20,m,1,sitting,29,RED,congruent,1191,1,
1,20,m,1,sitting,30,XXXX,baseline,1181,1,
1,20,m,1,sitting,31,BROWN,congruent,1672,1,
1,20,m,1,sitting,32,BROWN,congruent,1190,1,
1,20,m,1,sitting,33,XXXX,baseline,877,1,
1,20,m,1,sitting,34,RED,congruent,1708,1,
1,20,m,1,sitting,35,GREEN,incongruent,200,999,
1,20,m,1,sitting,36,RED,incongruent,943,1,
1,20,m,1,sitting,37,GREEN,congruent,1629,1,
1,20,m,1,sitting,38,XXXX,baseline,990,1,
1,20,m,1,sitting,39,XXX,baseline,944,1,
1,20,m,1,sitting,40,XXXX,baseline,979,1,
1,20,m,1,sitting,41,BROWN,congruent,1027,1,
1,20,m,1,sitting,42,GREEN,incongruent,1233,1,
1,20,m,1,sitting,43,BLUE,congruent,786,1,
1,20,m,1,sitting,44,GREEN,congruent,1140,1,
1,20,m,1,sitting,45,BLUE,congruent,1348,1,
1,20,m,1,sitting,46,BLUE,congruent,834,1,
1,20,m,1,sitting,47,XXX,baseline,200,1,
1,20,m,1,sitting,48,XXX,baseline,789,1,
1,20,m,1,sitting,49,BROWN,incongruent,1253,1,
1,20,m,1,sitting,50,GREEN,congruent,1232,1,
1,20,m,1,sitting,51,XXXXX,baseline,908,1,
1,20,m,1,sitting,52,GREEN,incongruent,913,1,
1,20,m,1,sitting,53,RED,congruent,877,1,
1,20,m,1,sitting,54,BROWN,incongruent,1187,1,
1,20,m,1,sitting,55,BROWN,congruent,1517,1,
1,20,m,1,sitting,56,XXXX,baseline,981,1,
1,20,m,1,sitting,57,BLUE,incongruent,1090,1,
1,20,m,1,sitting,58,XXXXX,baseline,877,1,
1,20,m,1,sitting,59,BLUE,incongruent,1227,1,
1,20,m,1,sitting,60,GREEN,congruent,1507,1,
1,20,m,1,sitting,61,BROWN,congruent,1873,1,
1,20,m,1,sitting,62,BLUE,incongruent,200,1,
1,20,m,1,sitting,63,XXX,baseline,901,1,
1,20,m,1,sitting,64,XXXXX,baseline,672,1,
1,20,m,1,sitting,65,GREEN,congruent,917,1,
1,20,m,1,sitting,66,RED,incongruent,1431,1,
1,20,m,1,sitting,67,RED,incongruent,1193,1,
1,20,m,1,sitting,68,RED,congruent,873,1,
1,20,m,1,sitting,69,BLUE,incongruent,1141,1,
1,20,m,1,sitting,70,GREEN,congruent,1152,999,
1,20,m,1,sitting,71,XXXXX,baseline,1473,1,
1,20,m,1,sitting,72,BROWN,congruent,200,999,
1,20,m,1,sitting,73,XXXX,baseline,1034,1,
1,20,m,1,sitting,74,BROWN,incongruent,980,1,
1,20,m,1,sitting,75,RED,incongruent,1168,1,
1,20,m,1,sitting,76,XXXXX,baseline,1154,1,
1,20,m,1,sitting,77,BROWN,congruent,904,1,
1,20,m,1,sitting,78,XXXXX,baseline,1190,1,
1,20,m,1,sitting,79,GREEN,incongruent,1134,1,
1,20,m,1,sitting,80,XXXX,baseline,1699,1,
1,20,m,1,sitting,81,BLUE,incongruent,848,1,
1,20,m,1,sitting,82,BROWN,congruent,975,1,
1,20,m,1,sitting,83,GREEN,congruent,788,1,
1,20,m,1,sitting,84,GREEN,congruent,814,1,
1,20,m,1,sitting,85,BROWN,incongruent,1155,1,
1,20,m,1,sitting,86,RED,incongruent,1181,1,
1,20,m,1,sitting,87,XXX,baseline,1716,1,
1,20,m,1,sitting,88,GREEN,incongruent,775,1,
1,20,m,1,sitting,89,XXXXX,baseline,892,1,
1,20,m,1,sitting,90,GREEN,incongruent,1132,1,
1,20,m,1,sitting,91,XXXXX,baseline,873,999,
1,20,m,1,sitting,92,RED,incongruent,1194,1,
1,20,m,1,sitting,93,BROWN,incongruent,1078,1,
1,20,m,1,sitting,94,BLUE,incongruent,1236,1,
1,20,m,1,sitting,95,XXXXX,baseline,1464,1,
1,20,m,1,sitting,96,XXXX,baseline,1253,1,
1,20,m,1,sitting,97,RED,congruent,1059,1,
1,20,m,1,sitting,98,XXX,baseline,840,1,
1,20,m,1,sitting,99,XXXXX,baseline,988,1,
1,20,m,1,sitting,100,RED,incongruent,1258,1,
1,20,m,1,sitting,101,BROWN,congruent,1212,1,
1,20,m,1,sitting,102,GREEN,congruent,1065,1,
1,20,m,1,sitting,103,GREEN,incongruent,1497,1,
1,20,m,1,sitting,104,BROWN,congruent,827,1,
1,20,m,1,sitting,105,XXX,baseline,1026,1,
1,20,m,1,sitting,106,GREEN,congruent,879,1,
1,20,m,1,sitting,107,XXX,baseline,956,1,
2,20,f,2,practice,0,GREEN,congruent,200,0,
2,20,f,2,practice,1,XXXX,baseline,896,1,
2,20,f,2,practice,2,XXXX,baseline,1103,1,
2,20,f,2,practice,3,BROWN,incongruent,1019,1,
2,20,f,2,practice,4,BROWN,incongruent,853,1,
2,20,f,2,practice,5,RED,incongruent,1007,1,
2,20,f,2,practice,6,BROWN,congruent,696,1,
2,20,f,2,practice,7,RED,incongruent,791,1,
2,20,f,2,practice,8,RED,incongruent,744,1,
2,20,f,2,practice,9,GREEN,congruent,707,1,
2,20,f,2,practice,10,RED,congruent,873,1,
2,20,f,2,practice,11,XXX,baseline,817,1,
2,20,f,2,practice,12,XXXXX,baseline,729,1,
2,20,f,2,practice,13,BLUE,incongruent,1667,1,
2,20,f,2,practice,14,XXXXX,baseline,674,1,
2,20,f,2,practice,15,GREEN,incongruent,1012,1,
2,20,f,2,practice,16,GREEN,congruent,753,1,
2,20,f,2,practice,17,RED,congruent,756,1,
2,20,f,2,practice,18,RED,congruent,292,999,
2,20,f,2,practice,19,XXXX,baseline,200,999,
2,20,f,2,practice,20,BLUE,incongruent,200,0,
2,20,f,2,practice,21,RED,congruent,708,1,
2,20,f,2,practice,22,XXXXX,baseline,710,1,
2,20,f,2,practice,23,XXX,baseline,907,1,
2,20,f,2,practice,24,BROWN,congruent,779,1,
2,20,f,2,practice,25,GREEN,incongruent,1056,1,
2,20,f,2,practice,26,XXXXX,baseline,728,1,
2,20,f,2,practice,27,BROWN,congruent,672,1,
2,20,f,2,practice,28,XXXX,baseline,634,1,
2,20,f,2,practice,29,BLUE,incongruent,699,1,
2,20,f,2,practice,30,BROWN,incongruent,975,1,
2,20,f,2,practice,31,XXXXX,baseline,877,1,
2,20,f,2,practice,32,BLUE,incongruent,960,1,
2,20,f,2,practice,33,XXX,baseline,933,1,
2,20,f,2,practice,34,XXXXX,baseline,854,1,
2,20,f,2,practice,35,BLUE,congruent,796,1,
2,20,f,2,practice,36,BROWN,congruent,728,1,
2,20,f,2,practice,37,XXXXX,baseline,834,1,
2,20,f,2,practice,38,BLUE,congruent,735,1,
2,20,f,2,practice,39,RED,incongruent,913,1,
2,20,f,2,practice,40,RED,congruent,652,1,
2,20,f,2,practice,41,XXXXX,baseline,758,1,
2,20,f,2,practice,42,XXXXX,baseline,659,1,
2,20,f,2,practice,43,BLUE,incongruent,855,1,
2,20,f,2,practice,44,BLUE,congruent,950,1,
2,20,f,2,practice,45,GREEN,congruent,781,1,
2,20,f,2,practice,46,BROWN,incongruent,1048,1,
2,20,f,2,practice,47,BROWN,incongruent,1011,1,
2,20,f,2,standing,0,BLUE,incongruent,1472,1,
2,20,f,2,standing,1,GREEN,incongruent,904,1,
2,20,f,2,standing,2,XXXXX,baseline,817,1,
2,20,f,2,standing,3,XXXX,baseline,863,1,
2,20,f,2,standing,4,XXXXX,baseline,746,1,
2,20,f,2,standing,5,XXX,baseline,892,1,
2,20,f,2,standing,6,RED,congruent,743,1,
2,20,f,2,standing,7,XXX,baseline,796,1,
2,20,f,2,standing,8,BROWN,congruent,899,1,
2,20,f,2,standing,9,XXXXX,baseline,770,1,
2,20,f,2,standing,10,XXX,baseline,703,1,
2,20,f,2,standing,11,XXX,baseline,675,1,
2,20,f,2,standing,12,XXX,baseline,741,1,
2,20,f,2,standing,13,BROWN,congruent,788,1,
2,20,f,2,standing,14,RED,incongruent,1333,1,
2,20,f,2,standing,15,XXXXX,baseline,958,1,
2,20,f,2,standing,16,RED,congruent,944,1,
2,20,f,2,standing,17,XXXX,baseline,746,1,
2,20,f,2,standing,18,BROWN,congruent,863,1,
2,20,f,2,standing,19,GREEN,congruent,859,1,
2,20,f,2,standing,20,XXX,baseline,702,1,
2,20,f,2,standing,21,XXXXX,baseline,939,1,
2,20,f,2,standing,22,BLUE,congruent,793,1,
2,20,f,2,standing,23,RED,congruent,830,1,
2,20,f,2,standing,24,GREEN,incongruent,1333,1,
2,20,f,2,standing,25,XXX,baseline,978,1,
2,20,f,2,standing,26,GREEN,incongruent,1096,1,
2,20,f,2,standing,27,BLUE,congruent,746,1,
2,20,f,2,standing,28,XXXXX,baseline,916,1,
2,20,f,2,standing,29,GREEN,incongruent,1135,1,
2,20,f,2,standing,30,BROWN,incongruent,899,1,
2,20,f,2,standing,31,RED,incongruent,945,1,
2,20,f,2,standing,32,BLUE,congruent,858,1,
2,20,f,2,standing,33,GREEN,congruent,793,1,
2,20,f,2,standing,34,BLUE,congruent,758,1,
2,20,f,2,standing,35,GREEN,incongruent,1291,1,
2,20,f,2,standing,36,BLUE,incongruent,1175,1,
2,20,f,2,standing,37,XXXXX,baseline,815,1,
2,20,f,2,standing,38,BLUE,congruent,792,1,
2,20,f,2,standing,39,XXXX,baseline,870,1,
2,20,f,2,standing,40,BLUE,congruent,692,1,
2,20,f,2,standing,41,XXXXX,baseline,758,1,
2,20,f,2,standing,42,BROWN,congruent,824,1,
2,20,f,2,standing,43,BROWN,congruent,709,1,
2,20,f,2,standing,44,RED,congruent,1112,1,
2,20,f,2,standing,45,GREEN,incongruent,1222,1,
2,20,f,2,standing,46,XXXX,baseline,1105,1,
2,20,f,2,standing,47,BLUE,incongruent,1091,1,
2,20,f,2,standing,48,BLUE,incongruent,1025,1,
2,20,f,2,standing,49,RED,congruent,1042,1,
2,20,f,2,standing,50,XXXXX,baseline,795,1,
2,20,f,2,standing,51,GREEN,congruent,872,1,
2,20,f,2,standing,52,BLUE,congruent,858,1,
2,20,f,2,standing,53,BLUE,incongruent,1055,1,
2,20,f,2,standing,54,XXXXX,baseline,836,1,
2,20,f,2,standing,55,XXXXX,baseline,912,1,
2,20,f,2,standing,56,BLUE,congruent,765,1,
2,20,f,2,standing,57,GREEN,congruent,852,1,
2,20,f,2,standing,58,GREEN,incongruent,1304,1,
2,20,f,2,standing,59,GREEN,incongruent,958,1,
2,20,f,2,standing,60,BROWN,incongruent,1146,1,
2,20,f,2,standing,61,XXXXX,baseline,827,1,
2,20,f,2,standing,62,BROWN,incongruent,944,1,
2,20,f,2,standing,63,BROWN,incongruent,1011,1,
2,20,f,2,standing,64,RED,incongruent,1018,1,
2,20,f,2,standing,65,BLUE,congruent,901,1,
2,20,f,2,standing,66,BLUE,congruent,937,1,
2,20,f,2,standing,67,BROWN,congruent,871,1,
2,20,f,2,standing,68,XXXXX,baseline,826,1,
2,20,f,2,standing,69,BLUE,incongruent,1045,1,
2,20,f,2,standing,70,BROWN,incongruent,1172,1,
2,20,f,2,standing,71,BROWN,congruent,811,1,
2,20,f,2,standing,72,GREEN,incongruent,988,1,
2,20,f,2,standing,73,BROWN,congruent,1044,1,
2,20,f,2,standing,74,GREEN,incongruent,1059,1,
2,20,f,2,standing,75,RED,incongruent,1015,1,
2,20,f,2,standing,76,XXXX,baseline,777,1,
2,20,f,2,standing,77,XXX,baseline,662,1,
2,20,f,2,standing,78,XXX,baseline,861,1,
2,20,f,2,standing,79,BROWN,incongruent,797,1,
2,20,f,2,standing,80,RED,congruent,866,1,
2,20,f,2,standing,81,XXXX,baseline,1014,0,
2,20,f,2,standing,82,GREEN,congruent,908,1,
2,20,f,2,standing,83,RED,congruent,954,1,
2,20,f,2,standing,84,XXXXX,baseline,796,1,
2,20,f,2,standing,85,BROWN,incongruent,986,1,
2,20,f,2,standing,86,XXXXX,baseline,1194,1,
2,20,f,2,standing,87,BROWN,congruent,743,1,
2,20,f,2,standing,88,BLUE,incongruent,FALSE,999,
2,20,f,2,standing,89,XXXXX,baseline,FALSE,999,
2,20,f,2,standing,90,XXX,baseline,1283,1,
2,20,f,2,standing,91,XXXXX,baseline,944,1,
2,20,f,2,standing,92,GREEN,congruent,FALSE,999,
2,20,f,2,standing,93,XXX,baseline,816,1,
2,20,f,2,standing,94,BLUE,congruent,1024,1,
2,20,f,2,standing,95,RED,incongruent,1212,0,
2,20,f,2,standing,96,BLUE,congruent,1096,1,
2,20,f,2,standing,97,GREEN,incongruent,1091,1,
2,20,f,2,standing,98,GREEN,congruent,985,1,
2,20,f,2,standing,99,XXX,baseline,1215,1,
2,20,f,2,standing,100,RED,incongruent,1383,1,
2,20,f,2,standing,101,RED,congruent,1334,1,
2,20,f,2,standing,102,RED,incongruent,1339,1,
2,20,f,2,standing,103,BLUE,incongruent,948,1,
2,20,f,2,standing,104,BROWN,incongruent,933,1,
2,20,f,2,standing,105,XXXXX,baseline,FALSE,999,
2,20,f,2,standing,106,BLUE,incongruent,1152,1,
2,20,f,2,standing,107,BROWN,incongruent,264,1,
2,20,f,2,sitting,0,BROWN,congruent,1020,1,
2,20,f,2,sitting,1,XXX,baseline,863,1,
2,20,f,2,sitting,2,XXXX,baseline,818,1,
2,20,f,2,sitting,3,XXXX,baseline,854,1,
2,20,f,2,sitting,4,GREEN,congruent,912,1,
2,20,f,2,sitting,5,GREEN,incongruent,948,1,
2,20,f,2,sitting,6,RED,congruent,1044,1,
2,20,f,2,sitting,7,XXXXX,baseline,795,1,
2,20,f,2,sitting,8,RED,incongruent,1025,1,
2,20,f,2,sitting,9,BLUE,incongruent,979,1,
2,20,f,2,sitting,10,GREEN,incongruent,1330,1,
2,20,f,2,sitting,11,GREEN,congruent,919,1,
2,20,f,2,sitting,12,BROWN,congruent,812,1,
2,20,f,2,sitting,13,GREEN,congruent,493,1,
2,20,f,2,sitting,14,RED,incongruent,937,1,
2,20,f,2,sitting,15,RED,congruent,1439,1,
2,20,f,2,sitting,16,XXXXX,baseline,1019,1,
2,20,f,2,sitting,17,GREEN,congruent,952,1,
2,20,f,2,sitting,18,XXXXX,baseline,978,1,
2,20,f,2,sitting,19,BROWN,congruent,852,1,
2,20,f,2,sitting,20,GREEN,incongruent,867,1,
2,20,f,2,sitting,21,BROWN,incongruent,1096,1,
2,20,f,2,sitting,22,RED,incongruent,FALSE,999,
2,20,f,2,sitting,23,BLUE,congruent,857,1,
2,20,f,2,sitting,24,XXXXX,baseline,873,1,
2,20,f,2,sitting,25,XXXXX,baseline,920,1,
2,20,f,2,sitting,26,BLUE,incongruent,1342,999,
2,20,f,2,sitting,27,GREEN,congruent,FALSE,999,
2,20,f,2,sitting,28,BROWN,congruent,784,1,
2,20,f,2,sitting,29,BROWN,congruent,780,1,
2,20,f,2,sitting,30,RED,congruent,786,1,
2,20,f,2,sitting,31,RED,incongruent,892,0,
2,20,f,2,sitting,32,BLUE,incongruent,1193,1,
2,20,f,2,sitting,33,XXXXX,baseline,813,1,
2,20,f,2,sitting,34,XXXXX,baseline,1113,1,
2,20,f,2,sitting,35,BLUE,congruent,863,1,
2,20,f,2,sitting,36,XXXXX,baseline,960,1,
2,20,f,2,sitting,37,BROWN,incongruent,FALSE,999,
2,20,f,2,sitting,38,RED,incongruent,1222,1,
2,20,f,2,sitting,39,XXXX,baseline,856,1,
2,20,f,2,sitting,40,RED,congruent,1106,1,
2,20,f,2,sitting,41,XXXXX,baseline,898,1,
2,20,f,2,sitting,42,XXXX,baseline,782,1,
2,20,f,2,sitting,43,BLUE,congruent,839,1,
2,20,f,2,sitting,44,BROWN,incongruent,1068,1,
2,20,f,2,sitting,45,BLUE,incongruent,758,1,
2,20,f,2,sitting,46,RED,congruent,FALSE,999,
2,20,f,2,sitting,47,BROWN,congruent,FALSE,999,
2,20,f,2,sitting,48,BROWN,incongruent,FALSE,999,
2,20,f,2,sitting,49,BLUE,incongruent,FALSE,999,
2,20,f,2,sitting,50,XXXX,baseline,FALSE,999,
2,20,f,2,sitting,51,XXXX,baseline,FALSE,999,
2,20,f,2,sitting,52,BLUE,incongruent,FALSE,999,
2,20,f,2,sitting,53,XXXX,baseline,FALSE,999,
2,20,f,2,sitting,54,GREEN,congruent,FALSE,999,
2,20,f,2,sitting,55,BROWN,incongruent,FALSE,999,
2,20,f,2,sitting,56,XXX,baseline,FALSE,999,
2,20,f,2,sitting,57,BLUE,incongruent,FALSE,999,
2,20,f,2,sitting,58,XXX,baseline,FALSE,999,
2,20,f,2,sitting,59,RED,incongruent,FALSE,999,
2,20,f,2,sitting,60,BLUE,congruent,FALSE,999,
2,20,f,2,sitting,61,BLUE,congruent,FALSE,999,
2,20,f,2,sitting,62,BLUE,incongruent,FALSE,999,
2,20,f,2,sitting,63,BROWN,congruent,FALSE,999,
2,20,f,2,sitting,64,GREEN,incongruent,FALSE,999,
2,20,f,2,sitting,65,GREEN,incongruent,FALSE,999,
2,20,f,2,sitting,66,BROWN,congruent,FALSE,999,
2,20,f,2,sitting,67,XXXX,baseline,FALSE,999,
2,20,f,2,sitting,68,XXXXX,baseline,FALSE,999,
2,20,f,2,sitting,69,XXX,baseline,FALSE,999,
2,20,f,2,sitting,70,XXX,baseline,FALSE,999,
2,20,f,2,sitting,71,RED,congruent,FALSE,999,
2,20,f,2,sitting,72,GREEN,congruent,FALSE,999,
2,20,f,2,sitting,73,BLUE,congruent,FALSE,999,
2,20,f,2,sitting,74,XXXXX,baseline,FALSE,999,
2,20,f,2,sitting,75,GREEN,incongruent,FALSE,999,
2,20,f,2,sitting,76,RED,incongruent,FALSE,999,
2,20,f,2,sitting,77,RED,congruent,FALSE,999,
2,20,f,2,sitting,78,XXXX,baseline,FALSE,999,
2,20,f,2,sitting,79,XXXXX,baseline,FALSE,999,
2,20,f,2,sitting,80,RED,congruent,FALSE,999,
2,20,f,2,sitting,81,XXX,baseline,FALSE,999,
2,20,f,2,sitting,82,GREEN,congruent,FALSE,999,
2,20,f,2,sitting,83,BLUE,incongruent,FALSE,999,
2,20,f,2,sitting,84,GREEN,incongruent,FALSE,999,
2,20,f,2,sitting,85,XXXXX,baseline,FALSE,999,
2,20,f,2,sitting,86,BLUE,congruent,FALSE,999,
2,20,f,2,sitting,87,BROWN,incongruent,FALSE,999,
2,20,f,2,sitting,88,XXXXX,baseline,FALSE,999,
2,20,f,2,sitting,89,GREEN,incongruent,FALSE,999,
2,20,f,2,sitting,90,XXXXX,baseline,FALSE,999,
2,20,f,2,sitting,91,BROWN,incongruent,FALSE,999,
2,20,f,2,sitting,92,XXX,baseline,FALSE,999,
2,20,f,2,sitting,93,BLUE,congruent,FALSE,999,
2,20,f,2,sitting,94,RED,congruent,FALSE,999,
2,20,f,2,sitting,95,RED,incongruent,FALSE,999,
2,20,f,2,sitting,96,XXXXX,baseline,FALSE,999,
2,20,f,2,sitting,97,BROWN,incongruent,FALSE,999,
2,20,f,2,sitting,98,RED,incongruent,FALSE,999,
2,20,f,2,sitting,99,XXXXX,baseline,FALSE,999,
2,20,f,2,sitting,100,XXXXX,baseline,FALSE,999,
2,20,f,2,sitting,101,RED,incongruent,FALSE,999,
2,20,f,2,sitting,102,XXXX,baseline,FALSE,999,
2,20,f,2,sitting,103,XXXXX,baseline,FALSE,999,
2,20,f,2,sitting,104,GREEN,incongruent,FALSE,999,
2,20,f,2,sitting,105,BROWN,congruent,FALSE,999,
2,20,f,2,sitting,106,GREEN,congruent,FALSE,999,
2,20,f,2,sitting,107,RED,congruent,FALSE,999,
3,19,f,1,practice,0,RED,congruent,200,1,
3,19,f,1,practice,1,BLUE,incongruent,1276,1,
3,19,f,1,practice,2,RED,incongruent,1070,1,
3,19,f,1,practice,3,BLUE,incongruent,1659,1,
3,19,f,1,practice,4,RED,congruent,200,999,
3,19,f,1,practice,5,GREEN,incongruent,1258,1,
3,19,f,1,practice,6,GREEN,congruent,1281,1,
3,19,f,1,practice,7,BROWN,congruent,266,999,
3,19,f,1,practice,8,RED,congruent,1111,1,
3,19,f,1,practice,9,GREEN,incongruent,1261,1,
3,19,f,1,practice,10,BLUE,incongruent,1231,1,
3,19,f,1,practice,11,XXX,baseline,1139,1,
3,19,f,1,practice,12,BROWN,congruent,1301,1,
3,19,f,1,practice,13,XXXXX,baseline,987,1,
3,19,f,1,practice,14,BROWN,incongruent,1149,1,
3,19,f,1,practice,15,XXXX,baseline,1019,1,
3,19,f,1,practice,16,GREEN,incongruent,1108,1,
3,19,f,1,practice,17,XXXX,baseline,1068,1,
3,19,f,1,practice,18,BROWN,incongruent,1200,1,
3,19,f,1,practice,19,GREEN,congruent,1221,1,
3,19,f,1,practice,20,RED,incongruent,894,1,
3,19,f,1,practice,21,BLUE,congruent,200,999,
3,19,f,1,practice,22,BROWN,incongruent,1071,1,
3,19,f,1,practice,23,BLUE,congruent,823,1,
3,19,f,1,practice,24,BROWN,incongruent,1221,1,
3,19,f,1,practice,25,XXX,baseline,1078,1,
3,19,f,1,practice,26,GREEN,congruent,1190,1,
3,19,f,1,practice,27,BROWN,incongruent,200,999,
3,19,f,1,practice,28,RED,incongruent,1216,1,
3,19,f,1,practice,29,XXXXX,baseline,200,999,
3,19,f,1,practice,30,XXXX,baseline,837,1,
3,19,f,1,practice,31,XXXXX,baseline,943,1,
3,19,f,1,practice,32,BLUE,incongruent,1046,1,
3,19,f,1,practice,33,XXX,baseline,1044,1,
3,19,f,1,practice,34,XXXXX,baseline,765,1,
3,19,f,1,practice,35,XXXXX,baseline,306,999,
3,19,f,1,practice,36,XXXXX,baseline,200,999,
3,19,f,1,practice,37,BROWN,congruent,201,999,
3,19,f,1,practice,38,XXX,baseline,932,1,
3,19,f,1,practice,39,RED,congruent,956,1,
3,19,f,1,practice,40,XXXX,baseline,1252,1,
3,19,f,1,practice,41,BLUE,congruent,200,999,
3,19,f,1,practice,42,BLUE,incongruent,1133,1,
3,19,f,1,practice,43,XXXXX,baseline,1029,1,
3,19,f,1,practice,44,GREEN,congruent,1104,1,
3,19,f,1,practice,45,GREEN,congruent,916,1,
3,19,f,1,practice,46,XXX,baseline,694,1,
3,19,f,1,practice,47,BROWN,congruent,200,999,
3,19,f,1,standing,0,XXXXX,baseline,215,1,
3,19,f,1,standing,1,BROWN,congruent,944,1,
3,19,f,1,standing,2,XXXX,baseline,200,999,
3,19,f,1,standing,3,BROWN,congruent,201,999,
3,19,f,1,standing,4,GREEN,congruent,200,1,
3,19,f,1,standing,5,GREEN,incongruent,1128,1,
3,19,f,1,standing,6,XXX,baseline,200,999,
3,19,f,1,standing,7,BLUE,incongruent,1212,1,
3,19,f,1,standing,8,BLUE,incongruent,200,999,
3,19,f,1,standing,9,GREEN,congruent,897,1,
3,19,f,1,standing,10,GREEN,incongruent,945,1,
3,19,f,1,standing,11,BLUE,incongruent,200,999,
3,19,f,1,standing,12,RED,incongruent,1133,1,
3,19,f,1,standing,13,BROWN,congruent,1088,1,
3,19,f,1,standing,14,BLUE,congruent,200,999,
3,19,f,1,standing,15,RED,congruent,201,1,
3,19,f,1,standing,16,BLUE,congruent,1066,1,
3,19,f,1,standing,17,XXX,baseline,201,999,
3,19,f,1,standing,18,BLUE,congruent,938,1,
3,19,f,1,standing,19,GREEN,congruent,915,1,
3,19,f,1,standing,20,XXX,baseline,895,1,
3,19,f,1,standing,21,BROWN,congruent,200,999,
3,19,f,1,standing,22,BROWN,congruent,799,1,
3,19,f,1,standing,23,BROWN,congruent,874,1,
3,19,f,1,standing,24,XXXXX,baseline,937,1,
3,19,f,1,standing,25,XXX,baseline,1059,1,
3,19,f,1,standing,26,GREEN,incongruent,1373,1,
3,19,f,1,standing,27,BROWN,congruent,200,999,
3,19,f,1,standing,28,RED,incongruent,200,1,
3,19,f,1,standing,29,BLUE,incongruent,200,999,
3,19,f,1,standing,30,BLUE,congruent,901,1,
3,19,f,1,standing,31,RED,congruent,920,1,
3,19,f,1,standing,32,BLUE,incongruent,287,999,
3,19,f,1,standing,33,XXXXX,baseline,200,999,
3,19,f,1,standing,34,BLUE,incongruent,919,1,
3,19,f,1,standing,35,GREEN,congruent,957,1,
3,19,f,1,standing,36,RED,incongruent,1150,1,
3,19,f,1,standing,37,GREEN,incongruent,1058,1,
3,19,f,1,standing,38,XXXXX,baseline,795,1,
3,19,f,1,standing,39,XXX,baseline,851,1,
3,19,f,1,standing,40,BLUE,congruent,827,1,
3,19,f,1,standing,41,BLUE,incongruent,866,1,
3,19,f,1,standing,42,BLUE,congruent,1105,1,
3,19,f,1,standing,43,RED,incongruent,786,1,
3,19,f,1,standing,44,XXXXX,baseline,500,1,
3,19,f,1,standing,45,XXX,baseline,200,999,
3,19,f,1,standing,46,RED,congruent,1216,1,
3,19,f,1,standing,47,BLUE,incongruent,200,999,
3,19,f,1,standing,48,XXXXX,baseline,1207,1,
3,19,f,1,standing,49,GREEN,congruent,200,999,
3,19,f,1,standing,50,XXXX,baseline,232,999,
3,19,f,1,standing,51,BROWN,congruent,200,999,
3,19,f,1,standing,52,BROWN,incongruent,902,1,
3,19,f,1,standing,53,XXXXX,baseline,703,1,
3,19,f,1,standing,54,BROWN,congruent,811,1,
3,19,f,1,standing,55,GREEN,incongruent,1030,1,
3,19,f,1,standing,56,BLUE,incongruent,1020,1,
3,19,f,1,standing,57,RED,incongruent,1354,1,
3,19,f,1,standing,58,GREEN,congruent,200,999,
3,19,f,1,standing,59,XXX,baseline,224,999,
3,19,f,1,standing,60,XXXX,baseline,201,999,
3,19,f,1,standing,61,BLUE,incongruent,346,1,
3,19,f,1,standing,62,BROWN,incongruent,225,999,
3,19,f,1,standing,63,XXXXX,baseline,200,999,
3,19,f,1,standing,64,XXXXX,baseline,247,1,
3,19,f,1,standing,65,RED,incongruent,1090,1,
3,19,f,1,standing,66,XXXXX,baseline,200,1,
3,19,f,1,standing,67,BLUE,congruent,571,1,
3,19,f,1,standing,68,GREEN,incongruent,200,999,
3,19,f,1,standing,69,XXXXX,baseline,290,999,
3,19,f,1,standing,70,BLUE,incongruent,201,999,
3,19,f,1,standing,71,BROWN,incongruent,220,999,
3,19,f,1,standing,72,GREEN,congruent,201,1,
3,19,f,1,standing,73,BLUE,congruent,200,999,
3,19,f,1,standing,74,BLUE,incongruent,677,1,
3,19,f,1,standing,75,XXXX,baseline,1130,1,
3,19,f,1,standing,76,XXXX,baseline,200,999,
3,19,f,1,standing,77,XXXXX,baseline,659,1,
3,19,f,1,standing,78,XXX,baseline,200,1,
3,19,f,1,standing,79,RED,congruent,224,999,
3,19,f,1,standing,80,XXXXX,baseline,201,1,
3,19,f,1,standing,81,RED,congruent,753,1,
3,19,f,1,standing,82,RED,incongruent,774,1,
3,19,f,1,standing,83,XXXXX,baseline,200,1,
3,19,f,1,standing,84,BROWN,congruent,510,1,
3,19,f,1,standing,85,GREEN,incongruent,200,999,
3,19,f,1,standing,86,XXXXX,baseline,830,1,
3,19,f,1,standing,87,RED,incongruent,201,999,
3,19,f,1,standing,88,BROWN,incongruent,933,1,
3,19,f,1,standing,89,GREEN,congruent,855,1,
3,19,f,1,standing,90,XXXXX,baseline,200,1,
3,19,f,1,standing,91,XXX,baseline,469,1,
3,19,f,1,standing,92,BROWN,incongruent,938,1,
3,19,f,1,standing,93,RED,congruent,916,1,
3,19,f,1,standing,94,RED,congruent,694,1,
3,19,f,1,standing,95,BROWN,incongruent,933,1,
3,19,f,1,standing,96,XXXX,baseline,1099,1,
3,19,f,1,standing,97,GREEN,congruent,816,1,
3,19,f,1,standing,98,XXXXX,baseline,256,1,
3,19,f,1,standing,99,XXX,baseline,911,1,
3,19,f,1,standing,100,RED,congruent,216,1,
3,19,f,1,standing,101,BLUE,incongruent,1221,1,
3,19,f,1,standing,102,XXXXX,baseline,1893,1,
3,19,f,1,standing,103,BROWN,congruent,200,999,
3,19,f,1,standing,104,XXXXX,baseline,853,1,
3,19,f,1,standing,105,XXX,baseline,856,1,
3,19,f,1,standing,106,GREEN,incongruent,266,999,
3,19,f,1,standing,107,GREEN,incongruent,1417,1,
3,19,f,1,sitting,0,RED,incongruent,200,999,
3,19,f,1,sitting,1,BLUE,incongruent,1080,1,
3,19,f,1,sitting,2,XXXX,baseline,200,999,
3,19,f,1,sitting,3,RED,congruent,1045,1,
3,19,f,1,sitting,4,XXXXX,baseline,795,1,
3,19,f,1,sitting,5,XXX,baseline,901,1,
3,19,f,1,sitting,6,GREEN,incongruent,1110,1,
3,19,f,1,sitting,7,BLUE,congruent,200,999,
3,19,f,1,sitting,8,RED,incongruent,892,1,
3,19,f,1,sitting,9,GREEN,incongruent,247,1,
3,19,f,1,sitting,10,XXXXX,baseline,835,1,
3,19,f,1,sitting,11,XXXX,baseline,852,1,
3,19,f,1,sitting,12,BROWN,congruent,857,1,
3,19,f,1,sitting,13,BLUE,congruent,957,1,
3,19,f,1,sitting,14,XXX,baseline,200,999,
3,19,f,1,sitting,15,BLUE,congruent,974,1,
3,19,f,1,sitting,16,RED,congruent,200,999,
3,19,f,1,sitting,17,XXXX,baseline,903,1,
3,19,f,1,sitting,18,BLUE,congruent,674,1,
3,19,f,1,sitting,19,BLUE,congruent,200,999,
3,19,f,1,sitting,20,RED,incongruent,862,1,
3,19,f,1,sitting,21,BLUE,congruent,200,999,
3,19,f,1,sitting,22,XXXXX,baseline,852,1,
3,19,f,1,sitting,23,BROWN,congruent,582,1,
3,19,f,1,sitting,24,BROWN,incongruent,201,999,
3,19,f,1,sitting,25,BLUE,congruent,1136,1,
3,19,f,1,sitting,26,RED,congruent,200,999,
3,19,f,1,sitting,27,XXXXX,baseline,831,1,
3,19,f,1,sitting,28,BLUE,congruent,826,1,
3,19,f,1,sitting,29,RED,incongruent,1096,1,
3,19,f,1,sitting,30,BROWN,congruent,200,999,
3,19,f,1,sitting,31,BLUE,incongruent,249,999,
3,19,f,1,sitting,32,XXXXX,baseline,348,999,
3,19,f,1,sitting,33,BLUE,incongruent,201,999,
3,19,f,1,sitting,34,XXXXX,baseline,201,999,
3,19,f,1,sitting,35,BLUE,congruent,945,1,
3,19,f,1,sitting,36,GREEN,congruent,857,1,
3,19,f,1,sitting,37,XXXXX,baseline,836,1,
3,19,f,1,sitting,38,XXXXX,baseline,1126,1,
3,19,f,1,sitting,39,RED,congruent,470,999,
3,19,f,1,sitting,40,XXXXX,baseline,200,999,
3,19,f,1,sitting,41,GREEN,incongruent,1111,1,
3,19,f,1,sitting,42,BROWN,incongruent,200,999,
3,19,f,1,sitting,43,GREEN,incongruent,374,999,
3,19,f,1,sitting,44,BLUE,congruent,1070,1,
3,19,f,1,sitting,45,BROWN,incongruent,1049,1,
3,19,f,1,sitting,46,BLUE,congruent,348,1,
3,19,f,1,sitting,47,BROWN,congruent,1065,1,
3,19,f,1,sitting,48,RED,congruent,959,1,
3,19,f,1,sitting,49,BROWN,congruent,266,999,
3,19,f,1,sitting,50,XXXXX,baseline,932,1,
3,19,f,1,sitting,51,XXXX,baseline,898,1,
3,19,f,1,sitting,52,XXXXX,baseline,1149,1,
3,19,f,1,sitting,53,RED,congruent,1134,1,
3,19,f,1,sitting,54,RED,congruent,216,1,
3,19,f,1,sitting,55,XXXXX,baseline,1068,1,
3,19,f,1,sitting,56,XXXXX,baseline,958,1,
3,19,f,1,sitting,57,BROWN,congruent,947,1,
3,19,f,1,sitting,58,GREEN,incongruent,1353,1,
3,19,f,1,sitting,59,GREEN,incongruent,200,999,
3,19,f,1,sitting,60,XXXXX,baseline,324,999,
3,19,f,1,sitting,61,BLUE,incongruent,1111,1,
3,19,f,1,sitting,62,XXXXX,baseline,226,1,
3,19,f,1,sitting,63,BLUE,congruent,925,1,
3,19,f,1,sitting,64,RED,incongruent,1393,1,
3,19,f,1,sitting,65,BROWN,incongruent,200,999,
3,19,f,1,sitting,66,GREEN,congruent,1391,1,
3,19,f,1,sitting,67,XXXXX,baseline,201,999,
3,19,f,1,sitting,68,XXXXX,baseline,923,1,
3,19,f,1,sitting,69,XXXXX,baseline,777,1,
3,19,f,1,sitting,70,BLUE,congruent,853,1,
3,19,f,1,sitting,71,RED,congruent,878,1,
3,19,f,1,sitting,72,XXX,baseline,933,1,
3,19,f,1,sitting,73,BLUE,incongruent,1233,1,
3,19,f,1,sitting,74,RED,incongruent,1386,1,
3,19,f,1,sitting,75,XXXX,baseline,1019,1,
3,19,f,1,sitting,76,GREEN,incongruent,1223,1,
3,19,f,1,sitting,77,GREEN,incongruent,200,999,
3,19,f,1,sitting,78,XXXX,baseline,1033,1,
3,19,f,1,sitting,79,BROWN,incongruent,938,1,
3,19,f,1,sitting,80,GREEN,incongruent,1211,1,
3,19,f,1,sitting,81,BLUE,congruent,877,1,
3,19,f,1,sitting,82,GREEN,incongruent,978,1,
3,19,f,1,sitting,83,RED,congruent,1008,1,
3,19,f,1,sitting,84,XXX,baseline,1059,1,
3,19,f,1,sitting,85,BROWN,incongruent,1008,1,
3,19,f,1,sitting,86,XXXXX,baseline,867,1,
3,19,f,1,sitting,87,XXXX,baseline,334,1,
3,19,f,1,sitting,88,GREEN,incongruent,916,1,
3,19,f,1,sitting,89,BROWN,incongruent,1192,1,
3,19,f,1,sitting,90,XXX,baseline,877,1,
3,19,f,1,sitting,91,RED,incongruent,1258,1,
3,19,f,1,sitting,92,XXX,baseline,200,999,
3,19,f,1,sitting,93,BROWN,congruent,1236,1,
3,19,f,1,sitting,94,GREEN,congruent,200,1,
3,19,f,1,sitting,95,GREEN,incongruent,201,999,
3,19,f,1,sitting,96,XXXXX,baseline,FALSE,999,
3,19,f,1,sitting,97,XXX,baseline,664,1,
3,19,f,1,sitting,98,RED,congruent,1028,1,
3,19,f,1,sitting,99,XXX,baseline,200,999,
3,19,f,1,sitting,100,BROWN,congruent,912,1,
3,19,f,1,sitting,101,RED,incongruent,1019,1,
3,19,f,1,sitting,102,XXXXX,baseline,700,1,
3,19,f,1,sitting,103,RED,congruent,1090,1,
3,19,f,1,sitting,104,GREEN,incongruent,1125,1,
3,19,f,1,sitting,105,GREEN,incongruent,1384,1,
3,19,f,1,sitting,106,GREEN,incongruent,1019,1,
3,19,f,1,sitting,107,BLUE,incongruent,944,1,
4,19,m,2,practice,0,BLUE,congruent,FALSE,999,
4,19,m,2,practice,1,RED,congruent,614,1,
4,19,m,2,practice,2,XXX,baseline,499,1,
4,19,m,2,practice,3,BLUE,incongruent,1927,999,
4,19,m,2,practice,4,XXXXX,baseline,200,999,
4,19,m,2,practice,5,XXXXX,baseline,662,1,
4,19,m,2,practice,6,BLUE,incongruent,462,999,
4,19,m,2,practice,7,XXX,baseline,832,1,
4,19,m,2,practice,8,GREEN,congruent,824,1,
4,19,m,2,practice,9,XXXX,baseline,634,1,
4,19,m,2,practice,10,XXXX,baseline,791,1,
4,19,m,2,practice,11,GREEN,congruent,631,1,
4,19,m,2,practice,12,BROWN,congruent,634,1,
4,19,m,2,practice,13,XXXXX,baseline,708,1,
4,19,m,2,practice,14,BLUE,incongruent,733,999,
4,19,m,2,practice,15,BROWN,incongruent,1314,1,
4,19,m,2,practice,16,XXXXX,baseline,753,1,
4,19,m,2,practice,17,RED,congruent,695,1,
4,19,m,2,practice,18,RED,congruent,573,1,
4,19,m,2,practice,19,XXX,baseline,717,1,
4,19,m,2,practice,20,RED,congruent,577,1,
4,19,m,2,practice,21,RED,congruent,570,1,
4,19,m,2,practice,22,XXXXX,baseline,991,1,
4,19,m,2,practice,23,BLUE,congruent,821,1,
4,19,m,2,practice,24,GREEN,congruent,734,1,
4,19,m,2,practice,25,BROWN,congruent,745,1,
4,19,m,2,practice,26,BLUE,incongruent,1195,1,
4,19,m,2,practice,27,GREEN,incongruent,876,0,
4,19,m,2,practice,28,BROWN,congruent,200,1,
4,19,m,2,practice,29,RED,incongruent,878,999,
4,19,m,2,practice,30,BROWN,incongruent,1084,1,
4,19,m,2,practice,31,GREEN,incongruent,1311,1,
4,19,m,2,practice,32,XXXX,baseline,1069,1,
4,19,m,2,practice,33,XXX,baseline,1376,1,
4,19,m,2,practice,34,XXXX,baseline,1313,1,
4,19,m,2,practice,35,XXXXX,baseline,623,1,
4,19,m,2,practice,36,GREEN,incongruent,1570,1,
4,19,m,2,practice,37,RED,incongruent,200,999,
4,19,m,2,practice,38,RED,incongruent,1436,1,
4,19,m,2,practice,39,GREEN,incongruent,896,1,
4,19,m,2,practice,40,BROWN,congruent,695,1,
4,19,m,2,practice,41,BLUE,incongruent,1176,1,
4,19,m,2,practice,42,XXXXX,baseline,1059,1,
4,19,m,2,practice,43,BROWN,congruent,705,1,
4,19,m,2,practice,44,XXXXX,baseline,1307,1,
4,19,m,2,practice,45,BROWN,incongruent,1708,1,
4,19,m,2,practice,46,BROWN,incongruent,703,1,
4,19,m,2,practice,47,BLUE,congruent,736,1,
4,19,m,2,standing,0,XXX,baseline,212,999,
4,19,m,2,standing,1,BLUE,incongruent,1301,1,
4,19,m,2,standing,2,XXX,baseline,652,1,
4,19,m,2,standing,3,BROWN,congruent,777,1,
4,19,m,2,standing,4,RED,congruent,831,1,
4,19,m,2,standing,5,GREEN,congruent,957,1,
4,19,m,2,standing,6,GREEN,congruent,675,1,
4,19,m,2,standing,7,BROWN,congruent,514,1,
4,19,m,2,standing,8,BLUE,incongruent,1128,1,
4,19,m,2,standing,9,RED,incongruent,1931,999,
4,19,m,2,standing,10,XXXX,baseline,797,1,
4,19,m,2,standing,11,XXXXX,baseline,770,1,
4,19,m,2,standing,12,RED,incongruent,1261,1,
4,19,m,2,standing,13,RED,congruent,1413,1,
4,19,m,2,standing,14,BLUE,incongruent,200,999,
4,19,m,2,standing,15,RED,congruent,989,1,
4,19,m,2,standing,16,BLUE,congruent,1046,1,
4,19,m,2,standing,17,XXXXX,baseline,837,1,
4,19,m,2,standing,18,GREEN,congruent,864,1,
4,19,m,2,standing,19,XXXX,baseline,1173,1,
4,19,m,2,standing,20,BROWN,congruent,1248,1,
4,19,m,2,standing,21,XXXX,baseline,1029,1,
4,19,m,2,standing,22,BLUE,congruent,1385,1,
4,19,m,2,standing,23,XXXX,baseline,735,1,
4,19,m,2,standing,24,BLUE,congruent,649,1,
4,19,m,2,standing,25,BLUE,incongruent,1294,1,
4,19,m,2,standing,26,BLUE,congruent,857,1,
4,19,m,2,standing,27,BLUE,congruent,821,1,
4,19,m,2,standing,28,XXXXX,baseline,837,1,
4,19,m,2,standing,29,GREEN,incongruent,1138,1,
4,19,m,2,standing,30,XXXX,baseline,698,1,
4,19,m,2,standing,31,BROWN,incongruent,1790,1,
4,19,m,2,standing,32,GREEN,incongruent,200,999,
4,19,m,2,standing,33,RED,incongruent,1463,1,
4,19,m,2,standing,34,XXX,baseline,1061,1,
4,19,m,2,standing,35,RED,incongruent,1788,1,
4,19,m,2,standing,36,RED,incongruent,200,999,
4,19,m,2,standing,37,XXXX,baseline,673,1,
4,19,m,2,standing,38,GREEN,incongruent,FALSE,999,
4,19,m,2,standing,39,XXXXX,baseline,200,999,
4,19,m,2,standing,40,XXXXX,baseline,1054,1,
4,19,m,2,standing,41,BROWN,incongruent,704,0,
4,19,m,2,standing,42,BROWN,congruent,791,1,
4,19,m,2,standing,43,RED,congruent,269,1,
4,19,m,2,standing,44,BROWN,incongruent,1414,1,
4,19,m,2,standing,45,XXXXX,baseline,1051,1,
4,19,m,2,standing,46,BROWN,incongruent,823,1,
4,19,m,2,standing,47,GREEN,incongruent,FALSE,999,
4,19,m,2,standing,48,BROWN,incongruent,1578,1,
4,19,m,2,standing,49,BLUE,congruent,200,999,
4,19,m,2,standing,50,GREEN,incongruent,1226,1,
4,19,m,2,standing,51,BROWN,incongruent,1224,1,
4,19,m,2,standing,52,BROWN,incongruent,1025,1,
4,19,m,2,standing,53,GREEN,congruent,1315,1,
4,19,m,2,standing,54,BLUE,congruent,775,1,
4,19,m,2,standing,55,BROWN,incongruent,1491,1,
4,19,m,2,standing,56,GREEN,incongruent,1577,1,
4,19,m,2,standing,57,RED,congruent,835,1,
4,19,m,2,standing,58,BLUE,incongruent,1338,1,
4,19,m,2,standing,59,BLUE,incongruent,776,1,
4,19,m,2,standing,60,XXXXX,baseline,914,1,
4,19,m,2,standing,61,GREEN,congruent,1397,1,
4,19,m,2,standing,62,BROWN,congruent,1091,1,
4,19,m,2,standing,63,RED,incongruent,1259,1,
4,19,m,2,standing,64,RED,incongruent,410,999,
4,19,m,2,standing,65,BLUE,congruent,946,1,
4,19,m,2,standing,66,BROWN,incongruent,1008,1,
4,19,m,2,standing,67,BROWN,incongruent,948,1,
4,19,m,2,standing,68,XXX,baseline,852,1,
4,19,m,2,standing,69,XXXXX,baseline,959,1,
4,19,m,2,standing,70,BROWN,incongruent,212,999,
4,19,m,2,standing,71,XXXXX,baseline,1427,1,
4,19,m,2,standing,72,XXXXX,baseline,827,1,
4,19,m,2,standing,73,BROWN,congruent,974,1,
4,19,m,2,standing,74,GREEN,congruent,1071,1,
4,19,m,2,standing,75,GREEN,incongruent,1381,1,
4,19,m,2,standing,76,XXXXX,baseline,1027,1,
4,19,m,2,standing,77,BLUE,congruent,1212,1,
4,19,m,2,standing,78,BROWN,congruent,878,1,
4,19,m,2,standing,79,BROWN,congruent,832,1,
4,19,m,2,standing,80,GREEN,incongruent,908,1,
4,19,m,2,standing,81,GREEN,incongruent,660,1,
4,19,m,2,standing,82,XXX,baseline,574,1,
4,19,m,2,standing,83,BROWN,congruent,630,1,
4,19,m,2,standing,84,GREEN,incongruent,1478,1,
4,19,m,2,standing,85,XXX,baseline,786,1,
4,19,m,2,standing,86,XXXXX,baseline,834,1,
4,19,m,2,standing,87,RED,congruent,217,1,
4,19,m,2,standing,88,RED,congruent,579,1,
4,19,m,2,standing,89,GREEN,congruent,624,1,
4,19,m,2,standing,90,XXX,baseline,853,1,
4,19,m,2,standing,91,XXXXX,baseline,707,1,
4,19,m,2,standing,92,XXXXX,baseline,662,1,
4,19,m,2,standing,93,XXXX,baseline,851,1,
4,19,m,2,standing,94,XXXX,baseline,614,1,
4,19,m,2,standing,95,XXX,baseline,702,1,
4,19,m,2,standing,96,RED,congruent,698,1,
4,19,m,2,standing,97,RED,congruent,573,1,
4,19,m,2,standing,98,GREEN,congruent,770,1,
4,19,m,2,standing,99,XXX,baseline,836,1,
4,19,m,2,standing,100,BLUE,incongruent,893,1,
4,19,m,2,standing,101,XXXX,baseline,797,1,
4,19,m,2,standing,102,XXX,baseline,670,1,
4,19,m,2,standing,103,XXXX,baseline,716,1,
4,19,m,2,standing,104,XXXXX,baseline,785,1,
4,19,m,2,standing,105,RED,congruent,674,1,
4,19,m,2,standing,106,BLUE,incongruent,1207,1,
4,19,m,2,standing,107,XXXXX,baseline,663,1,
4,19,m,2,sitting,0,BROWN,incongruent,1635,1,
4,19,m,2,sitting,1,GREEN,congruent,200,999,
4,19,m,2,sitting,2,XXXXX,baseline,200,999,
4,19,m,2,sitting,3,BROWN,congruent,200,999,
4,19,m,2,sitting,4,BLUE,incongruent,200,999,
4,19,m,2,sitting,5,GREEN,congruent,1143,1,
4,19,m,2,sitting,6,BLUE,incongruent,1314,1,
4,19,m,2,sitting,7,GREEN,incongruent,1558,1,
4,19,m,2,sitting,8,GREEN,congruent,200,999,
4,19,m,2,sitting,9,XXXXX,baseline,1142,1,
4,19,m,2,sitting,10,BLUE,congruent,1575,1,
4,19,m,2,sitting,11,GREEN,congruent,960,1,
4,19,m,2,sitting,12,XXX,baseline,712,1,
4,19,m,2,sitting,13,XXXXX,baseline,911,1,
4,19,m,2,sitting,14,BROWN,incongruent,989,1,
4,19,m,2,sitting,15,BLUE,incongruent,1066,1,
4,19,m,2,sitting,16,BLUE,congruent,838,1,
4,19,m,2,sitting,17,GREEN,incongruent,742,0,
4,19,m,2,sitting,18,RED,incongruent,656,0,
4,19,m,2,sitting,19,RED,congruent,825,1,
4,19,m,2,sitting,20,BROWN,congruent,1023,1,
4,19,m,2,sitting,21,BROWN,incongruent,1050,0,
4,19,m,2,sitting,22,XXXX,baseline,1544,1,
4,19,m,2,sitting,23,BLUE,congruent,200,999,
4,19,m,2,sitting,24,XXXX,baseline,935,1,
4,19,m,2,sitting,25,BLUE,incongruent,1417,1,
4,19,m,2,sitting,26,RED,congruent,201,999,
4,19,m,2,sitting,27,XXXXX,baseline,821,1,
4,19,m,2,sitting,28,BLUE,incongruent,1436,1,
4,19,m,2,sitting,29,BROWN,incongruent,1125,1,
4,19,m,2,sitting,30,XXX,baseline,611,1,
4,19,m,2,sitting,31,BLUE,incongruent,758,1,
4,19,m,2,sitting,32,XXX,baseline,896,1,
4,19,m,2,sitting,33,RED,congruent,608,1,
4,19,m,2,sitting,34,GREEN,congruent,1030,1,
4,19,m,2,sitting,35,BROWN,incongruent,772,999,
4,19,m,2,sitting,36,GREEN,incongruent,1183,1,
4,19,m,2,sitting,37,XXXXX,baseline,917,1,
4,19,m,2,sitting,38,GREEN,incongruent,894,1,
4,19,m,2,sitting,39,BROWN,congruent,216,1,
4,19,m,2,sitting,40,BROWN,incongruent,1868,1,
4,19,m,2,sitting,41,RED,incongruent,200,999,
4,19,m,2,sitting,42,RED,congruent,955,1,
4,19,m,2,sitting,43,XXXX,baseline,797,1,
4,19,m,2,sitting,44,RED,congruent,853,1,
4,19,m,2,sitting,45,XXXXX,baseline,961,1,
4,19,m,2,sitting,46,XXXX,baseline,745,1,
4,19,m,2,sitting,47,XXXXX,baseline,811,1,
4,19,m,2,sitting,48,XXXXX,baseline,554,1,
4,19,m,2,sitting,49,XXXX,baseline,520,1,
4,19,m,2,sitting,50,XXXX,baseline,811,1,
4,19,m,2,sitting,51,BROWN,incongruent,745,1,
4,19,m,2,sitting,52,GREEN,congruent,751,1,
4,19,m,2,sitting,53,XXXX,baseline,554,1,
4,19,m,2,sitting,54,RED,incongruent,1473,1,
4,19,m,2,sitting,55,BLUE,incongruent,786,1,
4,19,m,2,sitting,56,BROWN,congruent,629,1,
4,19,m,2,sitting,57,BLUE,congruent,594,1,
4,19,m,2,sitting,58,BLUE,incongruent,550,0,
4,19,m,2,sitting,59,XXX,baseline,1682,1,
4,19,m,2,sitting,60,BROWN,incongruent,200,999,
4,19,m,2,sitting,61,BROWN,congruent,832,1,
4,19,m,2,sitting,62,BROWN,incongruent,1435,1,
4,19,m,2,sitting,63,XXXXX,baseline,1140,1,
4,19,m,2,sitting,64,XXX,baseline,1024,1,
4,19,m,2,sitting,65,RED,congruent,1110,1,
4,19,m,2,sitting,66,RED,congruent,797,1,
4,19,m,2,sitting,67,RED,congruent,660,1,
4,19,m,2,sitting,68,RED,congruent,544,1,
4,19,m,2,sitting,69,RED,congruent,550,1,
4,19,m,2,sitting,70,GREEN,congruent,1632,1,
4,19,m,2,sitting,71,XXX,baseline,939,1,
4,19,m,2,sitting,72,BROWN,congruent,914,1,
4,19,m,2,sitting,73,XXX,baseline,918,1,
4,19,m,2,sitting,74,BROWN,incongruent,1259,1,
4,19,m,2,sitting,75,XXXXX,baseline,200,999,
4,19,m,2,sitting,76,BLUE,congruent,1411,1,
4,19,m,2,sitting,77,BLUE,congruent,593,1,
4,19,m,2,sitting,78,BLUE,incongruent,1166,1,
4,19,m,2,sitting,79,BROWN,incongruent,200,999,
4,19,m,2,sitting,80,XXXXX,baseline,1857,1,
4,19,m,2,sitting,81,BROWN,incongruent,200,999,
4,19,m,2,sitting,82,XXXXX,baseline,689,1,
4,19,m,2,sitting,83,BLUE,congruent,1234,1,
4,19,m,2,sitting,84,XXXXX,baseline,1009,1,
4,19,m,2,sitting,85,XXXX,baseline,771,1,
4,19,m,2,sitting,86,BROWN,incongruent,1509,1,
4,19,m,2,sitting,87,GREEN,congruent,573,1,
4,19,m,2,sitting,88,XXX,baseline,792,1,
4,19,m,2,sitting,89,BROWN,congruent,1224,1,
4,19,m,2,sitting,90,RED,incongruent,1548,1,
4,19,m,2,sitting,91,XXXXX,baseline,200,999,
4,19,m,2,sitting,92,BLUE,congruent,982,1,
4,19,m,2,sitting,93,BLUE,incongruent,1343,999,
4,19,m,2,sitting,94,XXX,baseline,FALSE,999,
4,19,m,2,sitting,95,GREEN,incongruent,FALSE,999,
4,19,m,2,sitting,96,GREEN,incongruent,FALSE,999,
4,19,m,2,sitting,97,GREEN,congruent,FALSE,999,
4,19,m,2,sitting,98,XXXXX,baseline,FALSE,999,
4,19,m,2,sitting,99,RED,incongruent,FALSE,999,
4,19,m,2,sitting,100,BLUE,congruent,FALSE,999,
4,19,m,2,sitting,101,XXX,baseline,FALSE,999,
4,19,m,2,sitting,102,XXX,baseline,FALSE,999,
4,19,m,2,sitting,103,XXX,baseline,FALSE,999,
4,19,m,2,sitting,104,GREEN,congruent,FALSE,999,
4,19,m,2,sitting,105,GREEN,incongruent,FALSE,999,
4,19,m,2,sitting,106,XXXXX,baseline,FALSE,999,
4,19,m,2,sitting,107,BROWN,incongruent,FALSE,999,
5,19,f,1,practice,0,BROWN,incongruent,200,999,
5,19,f,1,practice,1,BLUE,incongruent,1334,1,
5,19,f,1,practice,2,BROWN,congruent,1294,1,
5,19,f,1,practice,3,GREEN,congruent,FALSE,999,
5,19,f,1,practice,4,XXXXX,baseline,936,1,
5,19,f,1,practice,5,XXXXX,baseline,1061,1,
5,19,f,1,practice,6,XXXXX,baseline,821,1,
5,19,f,1,practice,7,XXXXX,baseline,1006,1,
5,19,f,1,practice,8,XXXX,baseline,877,1,
5,19,f,1,practice,9,RED,congruent,699,1,
5,19,f,1,practice,10,BROWN,congruent,772,1,
5,19,f,1,practice,11,RED,incongruent,786,1,
5,19,f,1,practice,12,BLUE,incongruent,1288,1,
5,19,f,1,practice,13,BLUE,incongruent,FALSE,999,
5,19,f,1,practice,14,XXXX,baseline,1007,1,
5,19,f,1,practice,15,XXX,baseline,FALSE,999,
5,19,f,1,practice,16,BLUE,congruent,986,1,
5,19,f,1,practice,17,XXXXX,baseline,895,1,
5,19,f,1,practice,18,RED,incongruent,1030,1,
5,19,f,1,practice,19,BLUE,congruent,860,1,
5,19,f,1,practice,20,RED,congruent,996,1,
5,19,f,1,practice,21,GREEN,congruent,FALSE,999,
5,19,f,1,practice,22,RED,incongruent,623,0,
5,19,f,1,practice,23,GREEN,congruent,200,999,
5,19,f,1,practice,24,RED,incongruent,1273,1,
5,19,f,1,practice,25,GREEN,incongruent,1144,1,
5,19,f,1,practice,26,BLUE,incongruent,1077,1,
5,19,f,1,practice,27,GREEN,congruent,1191,1,
5,19,f,1,practice,28,BROWN,incongruent,1084,1,
5,19,f,1,practice,29,XXXXX,baseline,936,1,
5,19,f,1,practice,30,BLUE,congruent,788,1,
5,19,f,1,practice,31,XXXXX,baseline,893,1,
5,19,f,1,practice,32,GREEN,congruent,FALSE,999,
5,19,f,1,practice,33,XXXX,baseline,907,1,
5,19,f,1,practice,34,XXXX,baseline,FALSE,999,
5,19,f,1,practice,35,GREEN,congruent,743,1,
5,19,f,1,practice,36,XXX,baseline,897,1,
5,19,f,1,practice,37,XXX,baseline,708,1,
5,19,f,1,practice,38,BROWN,congruent,834,1,
5,19,f,1,practice,39,XXXXX,baseline,1132,1,
5,19,f,1,practice,40,BROWN,congruent,777,1,
5,19,f,1,practice,41,BLUE,incongruent,902,1,
5,19,f,1,practice,42,GREEN,congruent,974,1,
5,19,f,1,practice,43,RED,incongruent,1018,1,
5,19,f,1,practice,44,BROWN,incongruent,1111,1,
5,19,f,1,practice,45,RED,incongruent,942,1,
5,19,f,1,practice,46,RED,incongruent,1222,1,
5,19,f,1,practice,47,XXXXX,baseline,949,1,
5,19,f,1,standing,0,BLUE,congruent,1220,1,
5,19,f,1,standing,1,GREEN,congruent,791,1,
5,19,f,1,standing,2,BROWN,congruent,755,1,
5,19,f,1,standing,3,BLUE,congruent,706,1,
5,19,f,1,standing,4,RED,incongruent,1045,1,
5,19,f,1,standing,5,XXX,baseline,1059,1,
5,19,f,1,standing,6,GREEN,incongruent,1144,1,
5,19,f,1,standing,7,GREEN,incongruent,975,1,
5,19,f,1,standing,8,BROWN,incongruent,906,1,
5,19,f,1,standing,9,GREEN,congruent,1133,1,
5,19,f,1,standing,10,XXXXX,baseline,822,1,
5,19,f,1,standing,11,RED,congruent,783,1,
5,19,f,1,standing,12,BLUE,incongruent,1111,1,
5,19,f,1,standing,13,XXX,baseline,749,1,
5,19,f,1,standing,14,XXXXX,baseline,918,1,
5,19,f,1,standing,15,GREEN,congruent,750,1,
5,19,f,1,standing,16,RED,congruent,836,1,
5,19,f,1,standing,17,GREEN,incongruent,792,1,
5,19,f,1,standing,18,BROWN,incongruent,808,1,
5,19,f,1,standing,19,BROWN,congruent,1027,1,
5,19,f,1,standing,20,BLUE,incongruent,991,1,
5,19,f,1,standing,21,RED,incongruent,945,1,
5,19,f,1,standing,22,BLUE,congruent,938,1,
5,19,f,1,standing,23,XXX,baseline,903,1,
5,19,f,1,standing,24,RED,incongruent,1083,1,
5,19,f,1,standing,25,XXX,baseline,987,1,
5,19,f,1,standing,26,XXXXX,baseline,840,1,
5,19,f,1,standing,27,GREEN,incongruent,897,1,
5,19,f,1,standing,28,XXXXX,baseline,698,1,
5,19,f,1,standing,29,XXX,baseline,1091,1,
5,19,f,1,standing,30,BLUE,incongruent,1046,1,
5,19,f,1,standing,31,XXX,baseline,920,1,
5,19,f,1,standing,32,XXXX,baseline,896,1,
5,19,f,1,standing,33,BLUE,incongruent,892,1,
5,19,f,1,standing,34,XXX,baseline,695,1,
5,19,f,1,standing,35,XXXXX,baseline,864,1,
5,19,f,1,standing,36,GREEN,incongruent,839,1,
5,19,f,1,standing,37,XXXX,baseline,1209,1,
5,19,f,1,standing,38,XXX,baseline,826,1,
5,19,f,1,standing,39,BROWN,congruent,781,1,
5,19,f,1,standing,40,BLUE,incongruent,939,1,
5,19,f,1,standing,41,BROWN,congruent,1067,1,
5,19,f,1,standing,42,BROWN,congruent,1194,1,
5,19,f,1,standing,43,BLUE,congruent,918,1,
5,19,f,1,standing,44,XXXXX,baseline,944,1,
5,19,f,1,standing,45,XXXXX,baseline,989,1,
5,19,f,1,standing,46,BROWN,congruent,771,1,
5,19,f,1,standing,47,BLUE,incongruent,1588,1,
5,19,f,1,standing,48,BLUE,congruent,928,1,
5,19,f,1,standing,49,BLUE,incongruent,1289,1,
5,19,f,1,standing,50,BROWN,incongruent,1141,1,
5,19,f,1,standing,51,XXXX,baseline,710,1,
5,19,f,1,standing,52,XXXXX,baseline,656,1,
5,19,f,1,standing,53,RED,congruent,1088,1,
5,19,f,1,standing,54,GREEN,incongruent,992,1,
5,19,f,1,standing,55,RED,congruent,785,1,
5,19,f,1,standing,56,GREEN,incongruent,1105,1,
5,19,f,1,standing,57,XXXXX,baseline,856,1,
5,19,f,1,standing,58,RED,congruent,780,1,
5,19,f,1,standing,59,XXXXX,baseline,694,1,
5,19,f,1,standing,60,XXXXX,baseline,741,1,
5,19,f,1,standing,61,XXX,baseline,940,1,
5,19,f,1,standing,62,GREEN,congruent,825,1,
5,19,f,1,standing,63,BROWN,incongruent,900,1,
5,19,f,1,standing,64,BLUE,congruent,987,1,
5,19,f,1,standing,65,RED,congruent,758,1,
5,19,f,1,standing,66,GREEN,incongruent,743,1,
5,19,f,1,standing,67,GREEN,congruent,902,1,
5,19,f,1,standing,68,XXXXX,baseline,826,1,
5,19,f,1,standing,69,GREEN,congruent,832,1,
5,19,f,1,standing,70,XXXXX,baseline,818,1,
5,19,f,1,standing,71,BROWN,congruent,743,1,
5,19,f,1,standing,72,RED,congruent,829,1,
5,19,f,1,standing,73,GREEN,congruent,794,1,
5,19,f,1,standing,74,XXXX,baseline,973,1,
5,19,f,1,standing,75,BLUE,incongruent,1171,1,
5,19,f,1,standing,76,RED,incongruent,1085,1,
5,19,f,1,standing,77,XXXXX,baseline,943,1,
5,19,f,1,standing,78,XXX,baseline,989,1,
5,19,f,1,standing,79,XXXXX,baseline,913,1,
5,19,f,1,standing,80,XXXX,baseline,1062,1,
5,19,f,1,standing,81,BROWN,incongruent,1190,1,
5,19,f,1,standing,82,BLUE,incongruent,1031,1,
5,19,f,1,standing,83,BLUE,incongruent,835,1,
5,19,f,1,standing,84,RED,congruent,943,1,
5,19,f,1,standing,85,RED,congruent,745,1,
5,19,f,1,standing,86,BROWN,congruent,782,1,
5,19,f,1,standing,87,BLUE,congruent,1010,1,
5,19,f,1,standing,88,RED,congruent,753,1,
5,19,f,1,standing,89,XXXX,baseline,840,1,
5,19,f,1,standing,90,XXXXX,baseline,834,1,
5,19,f,1,standing,91,BLUE,incongruent,1540,1,
5,19,f,1,standing,92,GREEN,incongruent,1099,1,
5,19,f,1,standing,93,XXXXX,baseline,1013,1,
5,19,f,1,standing,94,RED,congruent,754,1,
5,19,f,1,standing,95,BROWN,incongruent,861,1,
5,19,f,1,standing,96,XXX,baseline,939,1,
5,19,f,1,standing,97,GREEN,congruent,976,1,
5,19,f,1,standing,98,GREEN,incongruent,788,1,
5,19,f,1,standing,99,GREEN,incongruent,854,1,
5,19,f,1,standing,100,XXXX,baseline,809,1,
5,19,f,1,standing,101,RED,incongruent,793,1,
5,19,f,1,standing,102,BLUE,incongruent,941,1,
5,19,f,1,standing,103,BROWN,incongruent,1220,1,
5,19,f,1,standing,104,XXXXX,baseline,1013,1,
5,19,f,1,standing,105,GREEN,congruent,947,1,
5,19,f,1,standing,106,BLUE,incongruent,1136,1,
5,19,f,1,standing,107,GREEN,congruent,987,1,
5,19,f,1,sitting,0,BLUE,congruent,1009,1,
5,19,f,1,sitting,1,XXXXX,baseline,832,1,
5,19,f,1,sitting,2,XXXXX,baseline,654,1,
5,19,f,1,sitting,3,XXX,baseline,833,1,
5,19,f,1,sitting,4,RED,incongruent,868,1,
5,19,f,1,sitting,5,XXXXX,baseline,711,1,
5,19,f,1,sitting,6,BROWN,incongruent,778,1,
5,19,f,1,sitting,7,BLUE,incongruent,863,1,
5,19,f,1,sitting,8,RED,congruent,920,1,
5,19,f,1,sitting,9,BROWN,incongruent,823,1,
5,19,f,1,sitting,10,XXXXX,baseline,900,1,
5,19,f,1,sitting,11,RED,incongruent,1017,1,
5,19,f,1,sitting,12,BLUE,incongruent,991,1,
5,19,f,1,sitting,13,XXXXX,baseline,1261,1,
5,19,f,1,sitting,14,XXXXX,baseline,1061,1,
5,19,f,1,sitting,15,RED,congruent,1025,1,
5,19,f,1,sitting,16,BROWN,congruent,1101,1,
5,19,f,1,sitting,17,RED,incongruent,792,1,
5,19,f,1,sitting,18,RED,incongruent,787,1,
5,19,f,1,sitting,19,XXXXX,baseline,731,1,
5,19,f,1,sitting,20,XXXXX,baseline,716,1,
5,19,f,1,sitting,21,BROWN,congruent,690,1,
5,19,f,1,sitting,22,XXXXX,baseline,675,1,
5,19,f,1,sitting,23,GREEN,incongruent,712,1,
5,19,f,1,sitting,24,XXXXX,baseline,871,1,
5,19,f,1,sitting,25,XXXXX,baseline,774,1,
5,19,f,1,sitting,26,XXXX,baseline,587,1,
5,19,f,1,sitting,27,RED,congruent,745,1,
5,19,f,1,sitting,28,RED,incongruent,913,1,
5,19,f,1,sitting,29,GREEN,incongruent,938,1,
5,19,f,1,sitting,30,GREEN,congruent,782,1,
5,19,f,1,sitting,31,BLUE,incongruent,919,1,
5,19,f,1,sitting,32,BROWN,congruent,663,1,
5,19,f,1,sitting,33,BLUE,incongruent,973,1,
5,19,f,1,sitting,34,GREEN,incongruent,787,1,
5,19,f,1,sitting,35,BLUE,incongruent,813,1,
5,19,f,1,sitting,36,XXXXX,baseline,788,1,
5,19,f,1,sitting,37,BLUE,congruent,742,1,
5,19,f,1,sitting,38,BLUE,congruent,737,1,
5,19,f,1,sitting,39,BLUE,congruent,824,1,
5,19,f,1,sitting,40,BLUE,congruent,677,1,
5,19,f,1,sitting,41,BLUE,congruent,693,1,
5,19,f,1,sitting,42,RED,incongruent,933,1,
5,19,f,1,sitting,43,XXX,baseline,898,1,
5,19,f,1,sitting,44,BLUE,congruent,945,1,
5,19,f,1,sitting,45,BLUE,incongruent,754,1,
5,19,f,1,sitting,46,RED,congruent,668,1,
5,19,f,1,sitting,47,RED,incongruent,735,1,
5,19,f,1,sitting,48,GREEN,incongruent,852,1,
5,19,f,1,sitting,49,BLUE,congruent,816,999,
5,19,f,1,sitting,50,GREEN,congruent,FALSE,999,
5,19,f,1,sitting,51,XXXXX,baseline,FALSE,999,
5,19,f,1,sitting,52,RED,congruent,FALSE,999,
5,19,f,1,sitting,53,GREEN,congruent,FALSE,999,
5,19,f,1,sitting,54,GREEN,incongruent,FALSE,999,
5,19,f,1,sitting,55,RED,congruent,FALSE,999,
5,19,f,1,sitting,56,BROWN,incongruent,FALSE,999,
5,19,f,1,sitting,57,XXXX,baseline,FALSE,999,
5,19,f,1,sitting,58,BROWN,congruent,FALSE,999,
5,19,f,1,sitting,59,XXXXX,baseline,FALSE,999,
5,19,f,1,sitting,60,RED,incongruent,FALSE,999,
5,19,f,1,sitting,61,RED,incongruent,FALSE,999,
5,19,f,1,sitting,62,BROWN,incongruent,FALSE,999,
5,19,f,1,sitting,63,GREEN,incongruent,FALSE,999,
5,19,f,1,sitting,64,RED,incongruent,FALSE,999,
5,19,f,1,sitting,65,GREEN,incongruent,FALSE,999,
5,19,f,1,sitting,66,XXXXX,baseline,FALSE,999,
5,19,f,1,sitting,67,XXXX,baseline,FALSE,999,
5,19,f,1,sitting,68,BLUE,incongruent,FALSE,999,
5,19,f,1,sitting,69,BLUE,congruent,FALSE,999,
5,19,f,1,sitting,70,XXXXX,baseline,FALSE,999,
5,19,f,1,sitting,71,BLUE,incongruent,FALSE,999,
5,19,f,1,sitting,72,XXXXX,baseline,FALSE,999,
5,19,f,1,sitting,73,XXXX,baseline,FALSE,999,
5,19,f,1,sitting,74,BLUE,congruent,FALSE,999,
5,19,f,1,sitting,75,XXXX,baseline,FALSE,999,
5,19,f,1,sitting,76,BROWN,congruent,FALSE,999,
5,19,f,1,sitting,77,RED,congruent,1496,999,
5,19,f,1,sitting,78,XXXXX,baseline,958,1,
5,19,f,1,sitting,79,GREEN,incongruent,1005,0,
5,19,f,1,sitting,80,GREEN,congruent,857,1,
5,19,f,1,sitting,81,BLUE,congruent,648,1,
5,19,f,1,sitting,82,BROWN,incongruent,1009,1,
5,19,f,1,sitting,83,XXX,baseline,699,1,
5,19,f,1,sitting,84,BROWN,incongruent,836,1,
5,19,f,1,sitting,85,XXX,baseline,700,1,
5,19,f,1,sitting,86,XXXXX,baseline,696,1,
5,19,f,1,sitting,87,BLUE,incongruent,813,1,
5,19,f,1,sitting,88,RED,incongruent,859,1,
5,19,f,1,sitting,89,BROWN,congruent,590,1,
5,19,f,1,sitting,90,RED,incongruent,1357,1,
5,19,f,1,sitting,91,RED,congruent,673,1,
5,19,f,1,sitting,92,GREEN,congruent,861,1,
5,19,f,1,sitting,93,BLUE,congruent,654,1,
5,19,f,1,sitting,94,XXX,baseline,690,1,
5,19,f,1,sitting,95,GREEN,congruent,745,1,
5,19,f,1,sitting,96,BROWN,congruent,710,1,
5,19,f,1,sitting,97,RED,congruent,786,1,
5,19,f,1,sitting,98,XXXXX,baseline,650,1,
5,19,f,1,sitting,99,BROWN,congruent,614,1,
5,19,f,1,sitting,100,XXXXX,baseline,853,1,
5,19,f,1,sitting,101,XXXXX,baseline,676,1,
5,19,f,1,sitting,102,XXXXX,baseline,469,1,
5,19,f,1,sitting,103,XXX,baseline,779,1,
5,19,f,1,sitting,104,XXXX,baseline,745,1,
5,19,f,1,sitting,105,XXXXX,baseline,557,1,
5,19,f,1,sitting,106,BROWN,congruent,745,1,
5,19,f,1,sitting,107,BROWN,incongruent,689,1,
6,18,f,2,practice,0,BROWN,congruent,200,0,
6,18,f,2,practice,1,XXXX,baseline,822,1,
6,18,f,2,practice,2,XXX,baseline,825,1,
6,18,f,2,practice,3,BLUE,incongruent,1013,1,
6,18,f,2,practice,4,BROWN,congruent,899,1,
6,18,f,2,practice,5,BROWN,incongruent,937,1,
6,18,f,2,practice,6,RED,incongruent,1008,1,
6,18,f,2,practice,7,RED,congruent,879,1,
6,18,f,2,practice,8,BROWN,incongruent,863,1,
6,18,f,2,practice,9,RED,incongruent,834,1,
6,18,f,2,practice,10,XXXXX,baseline,896,1,
6,18,f,2,practice,11,RED,incongruent,880,1,
6,18,f,2,practice,12,XXX,baseline,874,1,
6,18,f,2,practice,13,RED,congruent,874,1,
6,18,f,2,practice,14,RED,incongruent,816,1,
6,18,f,2,practice,15,RED,congruent,783,1,
6,18,f,2,practice,16,XXXX,baseline,836,1,
6,18,f,2,practice,17,BROWN,congruent,834,1,
6,18,f,2,practice,18,BLUE,incongruent,915,1,
6,18,f,2,practice,19,GREEN,congruent,823,1,
6,18,f,2,practice,20,GREEN,incongruent,772,1,
6,18,f,2,practice,21,BLUE,congruent,733,1,
6,18,f,2,practice,22,XXXX,baseline,1072,1,
6,18,f,2,practice,23,XXXX,baseline,743,1,
6,18,f,2,practice,24,BLUE,incongruent,846,1,
6,18,f,2,practice,25,XXXXX,baseline,741,1,
6,18,f,2,practice,26,XXXXX,baseline,756,1,
6,18,f,2,practice,27,GREEN,congruent,748,1,
6,18,f,2,practice,28,XXXX,baseline,711,1,
6,18,f,2,practice,29,GREEN,incongruent,836,1,
6,18,f,2,practice,30,GREEN,incongruent,758,1,
6,18,f,2,practice,31,BLUE,congruent,731,1,
6,18,f,2,practice,32,BLUE,incongruent,948,1,
6,18,f,2,practice,33,RED,congruent,709,1,
6,18,f,2,practice,34,BLUE,incongruent,875,1,
6,18,f,2,practice,35,XXXXX,baseline,837,1,
6,18,f,2,practice,36,XXXXX,baseline,739,1,
6,18,f,2,practice,37,XXXXX,baseline,742,1,
6,18,f,2,practice,38,XXX,baseline,702,1,
6,18,f,2,practice,39,BROWN,congruent,706,1,
6,18,f,2,practice,40,GREEN,congruent,791,1,
6,18,f,2,practice,41,XXXXX,baseline,723,1,
6,18,f,2,practice,42,RED,congruent,706,1,
6,18,f,2,practice,43,GREEN,incongruent,1146,1,
6,18,f,2,practice,44,XXXXX,baseline,784,1,
6,18,f,2,practice,45,BROWN,congruent,788,1,
6,18,f,2,practice,46,BROWN,incongruent,853,1,
6,18,f,2,practice,47,BROWN,congruent,786,1,
6,18,f,2,standing,0,GREEN,incongruent,1058,1,
6,18,f,2,standing,1,GREEN,incongruent,786,1,
6,18,f,2,standing,2,GREEN,incongruent,922,1,
6,18,f,2,standing,3,XXX,baseline,785,1,
6,18,f,2,standing,4,XXXXX,baseline,778,1,
6,18,f,2,standing,5,BROWN,incongruent,832,1,
6,18,f,2,standing,6,XXX,baseline,896,1,
6,18,f,2,standing,7,XXXXX,baseline,776,1,
6,18,f,2,standing,8,XXXX,baseline,830,1,
6,18,f,2,standing,9,BROWN,incongruent,874,1,
6,18,f,2,standing,10,GREEN,incongruent,917,1,
6,18,f,2,standing,11,BLUE,congruent,747,1,
6,18,f,2,standing,12,RED,congruent,810,1,
6,18,f,2,standing,13,XXXXX,baseline,701,1,
6,18,f,2,standing,14,BLUE,incongruent,1008,1,
6,18,f,2,standing,15,XXXXX,baseline,796,1,
6,18,f,2,standing,16,GREEN,congruent,974,1,
6,18,f,2,standing,17,XXX,baseline,796,1,
6,18,f,2,standing,18,BROWN,incongruent,874,1,
6,18,f,2,standing,19,BROWN,congruent,756,1,
6,18,f,2,standing,20,XXXXX,baseline,782,1,
6,18,f,2,standing,21,GREEN,congruent,756,1,
6,18,f,2,standing,22,BROWN,incongruent,1029,1,
6,18,f,2,standing,23,GREEN,congruent,822,1,
6,18,f,2,standing,24,BLUE,incongruent,817,1,
6,18,f,2,standing,25,BROWN,congruent,200,999,
6,18,f,2,standing,26,BROWN,incongruent,201,999,
6,18,f,2,standing,27,XXX,baseline,856,1,
6,18,f,2,standing,28,XXXXX,baseline,790,1,
6,18,f,2,standing,29,GREEN,incongruent,827,1,
6,18,f,2,standing,30,BROWN,congruent,751,1,
6,18,f,2,standing,31,RED,congruent,767,1,
6,18,f,2,standing,32,XXXXX,baseline,1210,1,
6,18,f,2,standing,33,XXXXX,baseline,784,1,
6,18,f,2,standing,34,BLUE,congruent,364,1,
6,18,f,2,standing,35,XXXXX,baseline,746,1,
6,18,f,2,standing,36,BLUE,congruent,680,1,
6,18,f,2,standing,37,RED,congruent,747,1,
6,18,f,2,standing,38,GREEN,incongruent,1089,1,
6,18,f,2,standing,39,XXXX,baseline,988,1,
6,18,f,2,standing,40,RED,incongruent,953,1,
6,18,f,2,standing,41,BROWN,congruent,908,1,
6,18,f,2,standing,42,BROWN,incongruent,916,1,
6,18,f,2,standing,43,BROWN,congruent,798,1,
6,18,f,2,standing,44,XXXX,baseline,733,1,
6,18,f,2,standing,45,BLUE,incongruent,829,1,
6,18,f,2,standing,46,GREEN,congruent,1393,1,
6,18,f,2,standing,47,RED,incongruent,867,1,
6,18,f,2,standing,48,XXXXX,baseline,873,1,
6,18,f,2,standing,49,BLUE,congruent,867,1,
6,18,f,2,standing,50,BLUE,incongruent,1046,1,
6,18,f,2,standing,51,BROWN,congruent,715,1,
6,18,f,2,standing,52,XXXX,baseline,785,1,
6,18,f,2,standing,53,RED,congruent,771,1,
6,18,f,2,standing,54,BLUE,congruent,817,1,
6,18,f,2,standing,55,RED,incongruent,987,1,
6,18,f,2,standing,56,XXXXX,baseline,941,1,
6,18,f,2,standing,57,BLUE,congruent,826,1,
6,18,f,2,standing,58,RED,incongruent,934,1,
6,18,f,2,standing,59,BROWN,congruent,268,999,
6,18,f,2,standing,60,BROWN,congruent,730,1,
6,18,f,2,standing,61,RED,incongruent,735,1,
6,18,f,2,standing,62,GREEN,incongruent,670,1,
6,18,f,2,standing,63,GREEN,congruent,817,1,
6,18,f,2,standing,64,GREEN,congruent,774,1,
6,18,f,2,standing,65,XXXX,baseline,741,1,
6,18,f,2,standing,66,XXXXX,baseline,755,1,
6,18,f,2,standing,67,XXXXX,baseline,933,1,
6,18,f,2,standing,68,BROWN,congruent,776,1,
6,18,f,2,standing,69,BROWN,congruent,792,1,
6,18,f,2,standing,70,XXXX,baseline,654,1,
6,18,f,2,standing,71,RED,congruent,852,1,
6,18,f,2,standing,72,RED,incongruent,939,1,
6,18,f,2,standing,73,BROWN,incongruent,751,1,
6,18,f,2,standing,74,BLUE,incongruent,920,1,
6,18,f,2,standing,75,XXXXX,baseline,855,1,
6,18,f,2,standing,76,RED,congruent,809,1,
6,18,f,2,standing,77,XXX,baseline,864,1,
6,18,f,2,standing,78,XXX,baseline,757,1,
6,18,f,2,standing,79,BROWN,congruent,594,1,
6,18,f,2,standing,80,XXXX,baseline,793,1,
6,18,f,2,standing,81,RED,incongruent,795,1,
6,18,f,2,standing,82,RED,congruent,739,1,
6,18,f,2,standing,83,XXXX,baseline,795,1,
6,18,f,2,standing,84,XXX,baseline,754,1,
6,18,f,2,standing,85,RED,incongruent,778,1,
6,18,f,2,standing,86,XXXX,baseline,1069,1,
6,18,f,2,standing,87,XXXXX,baseline,755,1,
6,18,f,2,standing,88,GREEN,congruent,826,1,
6,18,f,2,standing,89,BLUE,incongruent,781,1,
6,18,f,2,standing,90,RED,incongruent,797,1,
6,18,f,2,standing,91,XXXXX,baseline,813,1,
6,18,f,2,standing,92,GREEN,incongruent,963,1,
6,18,f,2,standing,93,XXXXX,baseline,777,1,
6,18,f,2,standing,94,RED,congruent,723,1,
6,18,f,2,standing,95,XXXX,baseline,791,1,
6,18,f,2,standing,96,XXXX,baseline,906,1,
6,18,f,2,standing,97,XXXX,baseline,698,1,
6,18,f,2,standing,98,GREEN,incongruent,1019,1,
6,18,f,2,standing,99,GREEN,congruent,825,1,
6,18,f,2,standing,100,BLUE,incongruent,851,1,
6,18,f,2,standing,101,BLUE,incongruent,816,1,
6,18,f,2,standing,102,RED,incongruent,852,1,
6,18,f,2,standing,103,RED,incongruent,787,1,
6,18,f,2,standing,104,RED,congruent,690,1,
6,18,f,2,standing,105,GREEN,congruent,200,1,
6,18,f,2,standing,106,BLUE,congruent,661,1,
6,18,f,2,standing,107,BROWN,incongruent,1102,1,
6,18,f,2,sitting,0,BROWN,incongruent,937,1,
6,18,f,2,sitting,1,BLUE,incongruent,953,1,
6,18,f,2,sitting,2,XXX,baseline,866,1,
6,18,f,2,sitting,3,GREEN,congruent,1014,1,
6,18,f,2,sitting,4,BLUE,incongruent,868,1,
6,18,f,2,sitting,5,BLUE,incongruent,752,1,
6,18,f,2,sitting,6,BROWN,incongruent,829,1,
6,18,f,2,sitting,7,XXXXX,baseline,835,1,
6,18,f,2,sitting,8,BLUE,incongruent,1258,999,
6,18,f,2,sitting,9,GREEN,incongruent,897,1,
6,18,f,2,sitting,10,BLUE,incongruent,790,1,
6,18,f,2,sitting,11,BROWN,congruent,694,1,
6,18,f,2,sitting,12,RED,incongruent,669,1,
6,18,f,2,sitting,13,GREEN,incongruent,623,1,
6,18,f,2,sitting,14,GREEN,incongruent,904,1,
6,18,f,2,sitting,15,GREEN,congruent,FALSE,999,
6,18,f,2,sitting,16,XXXXX,baseline,744,1,
6,18,f,2,sitting,17,BLUE,incongruent,820,1,
6,18,f,2,sitting,18,BLUE,incongruent,947,1,
6,18,f,2,sitting,19,XXXX,baseline,FALSE,999,
6,18,f,2,sitting,20,BROWN,congruent,755,1,
6,18,f,2,sitting,21,XXXXX,baseline,1309,999,
6,18,f,2,sitting,22,BROWN,incongruent,907,1,
6,18,f,2,sitting,23,XXXX,baseline,1166,999,
6,18,f,2,sitting,24,BROWN,congruent,796,1,
6,18,f,2,sitting,25,XXXXX,baseline,740,1,
6,18,f,2,sitting,26,XXXXX,baseline,776,1,
6,18,f,2,sitting,27,XXXXX,baseline,740,1,
6,18,f,2,sitting,28,BLUE,congruent,787,1,
6,18,f,2,sitting,29,BROWN,congruent,873,1,
6,18,f,2,sitting,30,XXXXX,baseline,839,1,
6,18,f,2,sitting,31,GREEN,congruent,1149,999,
6,18,f,2,sitting,32,GREEN,congruent,FALSE,999,
6,18,f,2,sitting,33,BROWN,incongruent,947,1,
6,18,f,2,sitting,34,BLUE,congruent,740,1,
6,18,f,2,sitting,35,GREEN,congruent,1224,999,
6,18,f,2,sitting,36,RED,incongruent,1149,999,
6,18,f,2,sitting,37,XXXXX,baseline,839,1,
6,18,f,2,sitting,38,BROWN,congruent,855,1,
6,18,f,2,sitting,39,RED,incongruent,789,1,
6,18,f,2,sitting,40,RED,congruent,815,1,
6,18,f,2,sitting,41,BROWN,congruent,831,1,
6,18,f,2,sitting,42,BLUE,congruent,FALSE,999,
6,18,f,2,sitting,43,XXX,baseline,1018,1,
6,18,f,2,sitting,44,XXXX,baseline,983,1,
6,18,f,2,sitting,45,XXX,baseline,FALSE,999,
6,18,f,2,sitting,46,BLUE,congruent,FALSE,999,
6,18,f,2,sitting,47,GREEN,incongruent,785,1,
6,18,f,2,sitting,48,BLUE,congruent,FALSE,999,
6,18,f,2,sitting,49,GREEN,congruent,1132,999,
6,18,f,2,sitting,50,BROWN,incongruent,FALSE,999,
6,18,f,2,sitting,51,BLUE,incongruent,1232,999,
6,18,f,2,sitting,52,BLUE,incongruent,200,999,
6,18,f,2,sitting,53,XXX,baseline,1083,1,
6,18,f,2,sitting,54,RED,congruent,905,1,
6,18,f,2,sitting,55,BLUE,incongruent,911,1,
6,18,f,2,sitting,56,RED,incongruent,FALSE,999,
6,18,f,2,sitting,57,BLUE,incongruent,1222,999,
6,18,f,2,sitting,58,GREEN,incongruent,837,1,
6,18,f,2,sitting,59,XXXXX,baseline,1472,999,
6,18,f,2,sitting,60,RED,incongruent,1273,999,
6,18,f,2,sitting,61,XXX,baseline,787,1,
6,18,f,2,sitting,62,XXXXX,baseline,855,1,
6,18,f,2,sitting,63,RED,congruent,962,1,
6,18,f,2,sitting,64,XXXXX,baseline,1304,999,
6,18,f,2,sitting,65,RED,congruent,831,1,
6,18,f,2,sitting,66,RED,incongruent,FALSE,999,
6,18,f,2,sitting,67,GREEN,congruent,1436,999,
6,18,f,2,sitting,68,XXXXX,baseline,859,1,
6,18,f,2,sitting,69,GREEN,congruent,1384,999,
6,18,f,2,sitting,70,XXXXX,baseline,820,1,
6,18,f,2,sitting,71,BROWN,congruent,916,1,
6,18,f,2,sitting,72,RED,incongruent,1308,999,
6,18,f,2,sitting,73,GREEN,congruent,1384,999,
6,18,f,2,sitting,74,GREEN,congruent,1294,999,
6,18,f,2,sitting,75,BLUE,congruent,873,1,
6,18,f,2,sitting,76,GREEN,incongruent,939,1,
6,18,f,2,sitting,77,RED,congruent,904,1,
6,18,f,2,sitting,78,GREEN,congruent,1294,999,
6,18,f,2,sitting,79,GREEN,incongruent,986,1,
6,18,f,2,sitting,80,RED,congruent,900,1,
6,18,f,2,sitting,81,XXXXX,baseline,1139,1,
6,18,f,2,sitting,82,RED,incongruent,1004,1,
6,18,f,2,sitting,83,XXXXX,baseline,FALSE,999,
6,18,f,2,sitting,84,XXX,baseline,937,1,
6,18,f,2,sitting,85,XXXX,baseline,811,1,
6,18,f,2,sitting,86,GREEN,incongruent,756,1,
6,18,f,2,sitting,87,XXXXX,baseline,1257,999,
6,18,f,2,sitting,88,BROWN,congruent,816,1,
6,18,f,2,sitting,89,XXX,baseline,851,1,
6,18,f,2,sitting,90,GREEN,congruent,794,1,
6,18,f,2,sitting,91,RED,incongruent,737,1,
6,18,f,2,sitting,92,BLUE,incongruent,896,1,
6,18,f,2,sitting,93,XXXXX,baseline,770,1,
6,18,f,2,sitting,94,RED,incongruent,1263,999,
6,18,f,2,sitting,95,XXXXX,baseline,974,1,
6,18,f,2,sitting,96,BROWN,congruent,1011,1,
6,18,f,2,sitting,97,GREEN,incongruent,864,1,
6,18,f,2,sitting,98,RED,congruent,910,1,
6,18,f,2,sitting,99,XXXX,baseline,1262,999,
6,18,f,2,sitting,100,XXXXX,baseline,850,1,
6,18,f,2,sitting,101,XXXX,baseline,948,1,
6,18,f,2,sitting,102,XXXX,baseline,1298,999,
6,18,f,2,sitting,103,XXX,baseline,FALSE,999,
6,18,f,2,sitting,104,XXXX,baseline,735,1,
6,18,f,2,sitting,105,BLUE,congruent,894,1,
6,18,f,2,sitting,106,RED,congruent,879,1,
6,18,f,2,sitting,107,XXX,baseline,FALSE,999,
7,19,f,1,practice,0,XXXXX,baseline,200,999,
7,19,f,1,practice,1,GREEN,incongruent,1409,1,
7,19,f,1,practice,2,RED,congruent,200,999,
7,19,f,1,practice,3,GREEN,incongruent,200,999,
7,19,f,1,practice,4,GREEN,congruent,989,1,
7,19,f,1,practice,5,BLUE,congruent,861,1,
7,19,f,1,practice,6,BROWN,congruent,813,1,
7,19,f,1,practice,7,RED,congruent,201,999,
7,19,f,1,practice,8,RED,congruent,201,1,
7,19,f,1,practice,9,BLUE,congruent,772,1,
7,19,f,1,practice,10,BROWN,incongruent,988,1,
7,19,f,1,practice,11,GREEN,incongruent,940,1,
7,19,f,1,practice,12,BLUE,congruent,750,1,
7,19,f,1,practice,13,BROWN,incongruent,836,1,
7,19,f,1,practice,14,RED,incongruent,867,1,
7,19,f,1,practice,15,XXX,baseline,842,1,
7,19,f,1,practice,16,BLUE,congruent,815,1,
7,19,f,1,practice,17,RED,congruent,798,1,
7,19,f,1,practice,18,BROWN,congruent,863,1,
7,19,f,1,practice,19,XXXX,baseline,1151,1,
7,19,f,1,practice,20,XXXXX,baseline,856,1,
7,19,f,1,practice,21,GREEN,incongruent,940,1,
7,19,f,1,practice,22,RED,congruent,831,1,
7,19,f,1,practice,23,XXXXX,baseline,1059,1,
7,19,f,1,practice,24,RED,congruent,818,1,
7,19,f,1,practice,25,RED,congruent,708,1,
7,19,f,1,practice,26,XXXXX,baseline,872,1,
7,19,f,1,practice,27,BROWN,incongruent,865,1,
7,19,f,1,practice,28,BLUE,incongruent,1011,1,
7,19,f,1,practice,29,XXXXX,baseline,802,1,
7,19,f,1,practice,30,RED,incongruent,824,1,
7,19,f,1,practice,31,XXXXX,baseline,839,1,
7,19,f,1,practice,32,BLUE,incongruent,914,1,
7,19,f,1,practice,33,XXXX,baseline,735,1,
7,19,f,1,practice,34,XXXXX,baseline,709,1,
7,19,f,1,practice,35,XXXXX,baseline,650,1,
7,19,f,1,practice,36,BLUE,incongruent,856,1,
7,19,f,1,practice,37,GREEN,congruent,870,1,
7,19,f,1,practice,38,RED,incongruent,863,1,
7,19,f,1,practice,39,XXXXX,baseline,664,1,
7,19,f,1,practice,40,BROWN,incongruent,1095,1,
7,19,f,1,practice,41,BLUE,incongruent,783,1,
7,19,f,1,practice,42,GREEN,congruent,918,1,
7,19,f,1,practice,43,XXXXX,baseline,688,1,
7,19,f,1,practice,44,XXXX,baseline,701,1,
7,19,f,1,practice,45,XXXXX,baseline,797,1,
7,19,f,1,practice,46,RED,incongruent,941,1,
7,19,f,1,practice,47,XXXX,baseline,712,1,
7,19,f,1,standing,0,RED,incongruent,1974,999,
7,19,f,1,standing,1,XXX,baseline,200,1,
7,19,f,1,standing,2,GREEN,incongruent,201,999,
7,19,f,1,standing,3,XXXXX,baseline,713,1,
7,19,f,1,standing,4,RED,congruent,818,1,
7,19,f,1,standing,5,RED,incongruent,820,1,
7,19,f,1,standing,6,XXX,baseline,740,1,
7,19,f,1,standing,7,XXXX,baseline,782,1,
7,19,f,1,standing,8,XXX,baseline,898,1,
7,19,f,1,standing,9,RED,incongruent,820,1,
7,19,f,1,standing,10,XXXXX,baseline,794,1,
7,19,f,1,standing,11,GREEN,congruent,756,1,
7,19,f,1,standing,12,BLUE,congruent,570,1,
7,19,f,1,standing,13,XXXXX,baseline,758,1,
7,19,f,1,standing,14,XXXX,baseline,714,1,
7,19,f,1,standing,15,GREEN,congruent,749,1,
7,19,f,1,standing,16,XXXXX,baseline,795,1,
7,19,f,1,standing,17,XXXXX,baseline,780,1,
7,19,f,1,standing,18,BROWN,incongruent,837,1,
7,19,f,1,standing,19,BROWN,congruent,771,1,
7,19,f,1,standing,20,XXXXX,baseline,797,1,
7,19,f,1,standing,21,GREEN,congruent,813,1,
7,19,f,1,standing,22,BROWN,congruent,788,1,
7,19,f,1,standing,23,XXXX,baseline,773,1,
7,19,f,1,standing,24,XXXXX,baseline,799,1,
7,19,f,1,standing,25,XXXXX,baseline,815,1,
7,19,f,1,standing,26,XXXXX,baseline,821,1,
7,19,f,1,standing,27,RED,congruent,777,1,
7,19,f,1,standing,28,XXXXX,baseline,955,1,
7,19,f,1,standing,29,GREEN,congruent,624,1,
7,19,f,1,standing,30,XXXX,baseline,742,1,
7,19,f,1,standing,31,BLUE,incongruent,879,1,
7,19,f,1,standing,32,XXXXX,baseline,1168,1,
7,19,f,1,standing,33,BROWN,incongruent,919,1,
7,19,f,1,standing,34,XXX,baseline,812,1,
7,19,f,1,standing,35,BLUE,congruent,939,1,
7,19,f,1,standing,36,RED,incongruent,873,1,
7,19,f,1,standing,37,GREEN,incongruent,898,1,
7,19,f,1,standing,38,XXXXX,baseline,862,1,
7,19,f,1,standing,39,BLUE,incongruent,777,1,
7,19,f,1,standing,40,BROWN,incongruent,904,1,
7,19,f,1,standing,41,BLUE,congruent,777,1,
7,19,f,1,standing,42,GREEN,incongruent,855,1,
7,19,f,1,standing,43,RED,congruent,739,1,
7,19,f,1,standing,44,XXXX,baseline,827,1,
7,19,f,1,standing,45,XXXXX,baseline,832,1,
7,19,f,1,standing,46,XXXXX,baseline,910,1,
7,19,f,1,standing,47,BROWN,congruent,866,1,
7,19,f,1,standing,48,BLUE,incongruent,872,1,
7,19,f,1,standing,49,BROWN,congruent,796,1,
7,19,f,1,standing,50,BLUE,incongruent,974,1,
7,19,f,1,standing,51,RED,congruent,797,1,
7,19,f,1,standing,52,GREEN,congruent,894,1,
7,19,f,1,standing,53,RED,incongruent,960,1,
7,19,f,1,standing,54,XXXX,baseline,875,1,
7,19,f,1,standing,55,BROWN,congruent,901,1,
7,19,f,1,standing,56,RED,incongruent,949,1,
7,19,f,1,standing,57,RED,incongruent,874,1,
7,19,f,1,standing,58,XXXXX,baseline,881,1,
7,19,f,1,standing,59,XXXXX,baseline,916,1,
7,19,f,1,standing,60,XXXXX,baseline,792,1,
7,19,f,1,standing,61,BLUE,incongruent,898,1,
7,19,f,1,standing,62,BROWN,incongruent,1067,1,
7,19,f,1,standing,63,GREEN,incongruent,981,1,
7,19,f,1,standing,64,XXXXX,baseline,945,1,
7,19,f,1,standing,65,RED,congruent,799,1,
7,19,f,1,standing,66,BLUE,congruent,896,1,
7,19,f,1,standing,67,GREEN,incongruent,861,1,
7,19,f,1,standing,68,BROWN,incongruent,787,1,
7,19,f,1,standing,69,BROWN,congruent,861,1,
7,19,f,1,standing,70,XXXX,baseline,947,1,
7,19,f,1,standing,71,RED,congruent,770,1,
7,19,f,1,standing,72,GREEN,congruent,735,1,
7,19,f,1,standing,73,XXXX,baseline,834,1,
7,19,f,1,standing,74,BROWN,congruent,910,1,
7,19,f,1,standing,75,XXXXX,baseline,865,1,
7,19,f,1,standing,76,BROWN,incongruent,758,1,
7,19,f,1,standing,77,RED,congruent,733,1,
7,19,f,1,standing,78,BLUE,congruent,717,1,
7,19,f,1,standing,79,BLUE,incongruent,824,1,
7,19,f,1,standing,80,XXXXX,baseline,1052,1,
7,19,f,1,standing,81,BLUE,congruent,825,1,
7,19,f,1,standing,82,RED,incongruent,861,1,
7,19,f,1,standing,83,BROWN,incongruent,876,1,
7,19,f,1,standing,84,BLUE,incongruent,821,1,
7,19,f,1,standing,85,RED,congruent,776,1,
7,19,f,1,standing,86,GREEN,congruent,863,1,
7,19,f,1,standing,87,RED,incongruent,747,1,
7,19,f,1,standing,88,GREEN,congruent,773,1,
7,19,f,1,standing,89,XXXX,baseline,778,1,
7,19,f,1,standing,90,GREEN,congruent,783,1,
7,19,f,1,standing,91,RED,congruent,749,1,
7,19,f,1,standing,92,RED,incongruent,916,1,
7,19,f,1,standing,93,RED,congruent,771,1,
7,19,f,1,standing,94,BROWN,incongruent,940,1,
7,19,f,1,standing,95,BROWN,incongruent,957,1,
7,19,f,1,standing,96,GREEN,congruent,811,1,
7,19,f,1,standing,97,BLUE,incongruent,837,1,
7,19,f,1,standing,98,XXXX,baseline,822,1,
7,19,f,1,standing,99,BLUE,congruent,797,1,
7,19,f,1,standing,100,GREEN,incongruent,771,1,
7,19,f,1,standing,101,BROWN,incongruent,837,1,
7,19,f,1,standing,102,BLUE,congruent,731,1,
7,19,f,1,standing,103,BLUE,incongruent,838,1,
7,19,f,1,standing,104,BROWN,congruent,703,1,
7,19,f,1,standing,105,XXX,baseline,758,1,
7,19,f,1,standing,106,RED,incongruent,836,1,
7,19,f,1,standing,107,XXX,baseline,852,1,
7,19,f,1,sitting,0,XXXXX,baseline,780,1,
7,19,f,1,sitting,1,XXX,baseline,201,999,
7,19,f,1,sitting,2,GREEN,congruent,201,999,
7,19,f,1,sitting,3,RED,incongruent,877,1,
7,19,f,1,sitting,4,XXXXX,baseline,812,1,
7,19,f,1,sitting,5,RED,incongruent,1508,1,
7,19,f,1,sitting,6,BROWN,congruent,817,1,
7,19,f,1,sitting,7,GREEN,congruent,864,1,
7,19,f,1,sitting,8,RED,congruent,788,1,
7,19,f,1,sitting,9,BROWN,congruent,773,1,
7,19,f,1,sitting,10,BROWN,congruent,757,1,
7,19,f,1,sitting,11,BROWN,incongruent,876,1,
7,19,f,1,sitting,12,GREEN,congruent,770,1,
7,19,f,1,sitting,13,XXXX,baseline,735,1,
7,19,f,1,sitting,14,BLUE,incongruent,872,1,
7,19,f,1,sitting,15,RED,incongruent,877,1,
7,19,f,1,sitting,16,BLUE,incongruent,851,1,
7,19,f,1,sitting,17,RED,congruent,733,1,
7,19,f,1,sitting,18,GREEN,incongruent,820,1,
7,19,f,1,sitting,19,RED,incongruent,776,1,
7,19,f,1,sitting,20,RED,incongruent,791,1,
7,19,f,1,sitting,21,BLUE,congruent,736,1,
7,19,f,1,sitting,22,BLUE,congruent,812,1,
7,19,f,1,sitting,23,BROWN,congruent,716,1,
7,19,f,1,sitting,24,RED,congruent,713,1,
7,19,f,1,sitting,25,GREEN,congruent,841,1,
7,19,f,1,sitting,26,RED,incongruent,866,1,
7,19,f,1,sitting,27,RED,incongruent,730,1,
7,19,f,1,sitting,28,GREEN,incongruent,837,1,
7,19,f,1,sitting,29,XXXXX,baseline,732,1,
7,19,f,1,sitting,30,RED,incongruent,901,1,
7,19,f,1,sitting,31,XXXXX,baseline,836,1,
7,19,f,1,sitting,32,BROWN,congruent,690,1,
7,19,f,1,sitting,33,BROWN,incongruent,869,1,
7,19,f,1,sitting,34,BROWN,congruent,712,1,
7,19,f,1,sitting,35,XXXXX,baseline,708,1,
7,19,f,1,sitting,36,XXXXX,baseline,735,1,
7,19,f,1,sitting,37,XXXXX,baseline,1004,1,
7,19,f,1,sitting,38,XXXX,baseline,758,1,
7,19,f,1,sitting,39,XXXXX,baseline,673,1,
7,19,f,1,sitting,40,BROWN,incongruent,810,1,
7,19,f,1,sitting,41,XXXX,baseline,714,1,
7,19,f,1,sitting,42,BLUE,incongruent,741,1,
7,19,f,1,sitting,43,XXX,baseline,746,1,
7,19,f,1,sitting,44,GREEN,incongruent,833,1,
7,19,f,1,sitting,45,XXXXX,baseline,636,1,
7,19,f,1,sitting,46,BLUE,incongruent,612,1,
7,19,f,1,sitting,47,BROWN,congruent,706,1,
7,19,f,1,sitting,48,GREEN,incongruent,783,1,
7,19,f,1,sitting,49,GREEN,congruent,626,1,
7,19,f,1,sitting,50,RED,incongruent,896,1,
7,19,f,1,sitting,51,XXXXX,baseline,811,1,
7,19,f,1,sitting,52,BROWN,incongruent,806,1,
7,19,f,1,sitting,53,XXXXX,baseline,691,1,
7,19,f,1,sitting,54,XXXX,baseline,746,1,
7,19,f,1,sitting,55,RED,congruent,661,1,
7,19,f,1,sitting,56,BLUE,congruent,656,1,
7,19,f,1,sitting,57,XXXX,baseline,671,1,
7,19,f,1,sitting,58,XXXX,baseline,809,1,
7,19,f,1,sitting,59,RED,congruent,745,1,
7,19,f,1,sitting,60,BLUE,congruent,609,1,
7,19,f,1,sitting,61,GREEN,congruent,776,1,
7,19,f,1,sitting,62,BROWN,congruent,629,1,
7,19,f,1,sitting,63,XXX,baseline,1032,1,
7,19,f,1,sitting,64,XXXXX,baseline,796,1,
7,19,f,1,sitting,65,XXX,baseline,750,1,
7,19,f,1,sitting,66,XXXXX,baseline,735,1,
7,19,f,1,sitting,67,GREEN,incongruent,873,1,
7,19,f,1,sitting,68,XXXX,baseline,827,1,
7,19,f,1,sitting,69,XXX,baseline,752,1,
7,19,f,1,sitting,70,GREEN,congruent,799,1,
7,19,f,1,sitting,71,BROWN,incongruent,866,1,
7,19,f,1,sitting,72,BLUE,incongruent,912,1,
7,19,f,1,sitting,73,RED,congruent,715,1,
7,19,f,1,sitting,74,GREEN,incongruent,720,1,
7,19,f,1,sitting,75,XXXXX,baseline,868,1,
7,19,f,1,sitting,76,XXXX,baseline,834,1,
7,19,f,1,sitting,77,GREEN,incongruent,798,1,
7,19,f,1,sitting,78,XXX,baseline,793,1,
7,19,f,1,sitting,79,XXX,baseline,797,1,
7,19,f,1,sitting,80,XXXX,baseline,955,1,
7,19,f,1,sitting,81,XXXXX,baseline,734,1,
7,19,f,1,sitting,82,BLUE,incongruent,699,1,
7,19,f,1,sitting,83,RED,incongruent,776,1,
7,19,f,1,sitting,84,GREEN,congruent,834,1,
7,19,f,1,sitting,85,BLUE,congruent,615,1,
7,19,f,1,sitting,86,RED,congruent,693,1,
7,19,f,1,sitting,87,RED,congruent,627,1,
7,19,f,1,sitting,88,BROWN,congruent,744,1,
7,19,f,1,sitting,89,RED,congruent,703,1,
7,19,f,1,sitting,90,BROWN,incongruent,851,1,
7,19,f,1,sitting,91,GREEN,congruent,765,1,
7,19,f,1,sitting,92,GREEN,congruent,784,1,
7,19,f,1,sitting,93,XXXXX,baseline,799,1,
7,19,f,1,sitting,94,BLUE,congruent,784,1,
7,19,f,1,sitting,95,XXXXX,baseline,852,1,
7,19,f,1,sitting,96,BROWN,congruent,857,1,
7,19,f,1,sitting,97,BLUE,incongruent,864,1,
7,19,f,1,sitting,98,BLUE,incongruent,815,1,
7,19,f,1,sitting,99,XXXXX,baseline,700,1,
7,19,f,1,sitting,100,XXXX,baseline,798,1,
7,19,f,1,sitting,101,RED,congruent,783,1,
7,19,f,1,sitting,102,BLUE,incongruent,799,1,
7,19,f,1,sitting,103,GREEN,incongruent,200,999,
7,19,f,1,sitting,104,XXXX,baseline,200,999,
7,19,f,1,sitting,105,BROWN,incongruent,815,1,
7,19,f,1,sitting,106,BLUE,incongruent,862,1,
7,19,f,1,sitting,107,BROWN,incongruent,201,999,
8,19,f,1,practice,0,GREEN,incongruent,426,0,
8,19,f,1,practice,1,XXX,baseline,200,999,
8,19,f,1,practice,2,GREEN,incongruent,200,999,
8,19,f,1,practice,3,BLUE,incongruent,856,1,
8,19,f,1,practice,4,GREEN,congruent,200,999,
8,19,f,1,practice,5,GREEN,incongruent,200,999,
8,19,f,1,practice,6,XXXX,baseline,200,1,
8,19,f,1,practice,7,BROWN,congruent,1007,1,
8,19,f,1,practice,8,BROWN,congruent,755,1,
8,19,f,1,practice,9,XXX,baseline,200,999,
8,19,f,1,practice,10,BROWN,incongruent,201,999,
8,19,f,1,practice,11,GREEN,incongruent,200,999,
8,19,f,1,practice,12,XXXXX,baseline,200,1,
8,19,f,1,practice,13,GREEN,incongruent,201,1,
8,19,f,1,practice,14,RED,congruent,865,1,
8,19,f,1,practice,15,RED,congruent,623,1,
8,19,f,1,practice,16,GREEN,incongruent,715,1,
8,19,f,1,practice,17,XXX,baseline,832,1,
8,19,f,1,practice,18,BLUE,congruent,712,1,
8,19,f,1,practice,19,BROWN,congruent,797,1,
8,19,f,1,practice,20,BLUE,incongruent,932,1,
8,19,f,1,practice,21,XXX,baseline,216,999,
8,19,f,1,practice,22,XXXX,baseline,200,1,
8,19,f,1,practice,23,XXXX,baseline,668,1,
8,19,f,1,practice,24,BROWN,congruent,773,1,
8,19,f,1,practice,25,BROWN,congruent,673,1,
8,19,f,1,practice,26,XXXXX,baseline,350,1,
8,19,f,1,practice,27,XXX,baseline,721,1,
8,19,f,1,practice,28,GREEN,congruent,511,1,
8,19,f,1,practice,29,GREEN,congruent,200,1,
8,19,f,1,practice,30,XXXXX,baseline,827,1,
8,19,f,1,practice,31,RED,congruent,677,1,
8,19,f,1,practice,32,BLUE,congruent,377,1,
8,19,f,1,practice,33,XXXX,baseline,656,1,
8,19,f,1,practice,34,BLUE,incongruent,212,999,
8,19,f,1,practice,35,XXXX,baseline,866,1,
8,19,f,1,practice,36,BLUE,incongruent,908,1,
8,19,f,1,practice,37,RED,incongruent,489,1,
8,19,f,1,practice,38,GREEN,incongruent,295,1,
8,19,f,1,practice,39,BROWN,incongruent,378,999,
8,19,f,1,practice,40,XXX,baseline,736,1,
8,19,f,1,practice,41,RED,incongruent,668,1,
8,19,f,1,practice,42,XXXXX,baseline,458,1,
8,19,f,1,practice,43,XXXXX,baseline,653,1,
8,19,f,1,practice,44,RED,congruent,200,999,
8,19,f,1,practice,45,BROWN,congruent,538,1,
8,19,f,1,practice,46,GREEN,incongruent,621,1,
8,19,f,1,practice,47,BLUE,congruent,774,1,
8,19,f,1,standing,0,BROWN,incongruent,509,1,
8,19,f,1,standing,1,GREEN,congruent,772,1,
8,19,f,1,standing,2,BLUE,congruent,278,1,
8,19,f,1,standing,3,RED,incongruent,415,0,
8,19,f,1,standing,4,XXXXX,baseline,200,1,
8,19,f,1,standing,5,RED,congruent,566,1,
8,19,f,1,standing,6,XXXX,baseline,712,1,
8,19,f,1,standing,7,BROWN,congruent,735,1,
8,19,f,1,standing,8,BROWN,congruent,666,1,
8,19,f,1,standing,9,RED,incongruent,1026,1,
8,19,f,1,standing,10,XXXX,baseline,594,1,
8,19,f,1,standing,11,RED,incongruent,618,1,
8,19,f,1,standing,12,XXXX,baseline,663,1,
8,19,f,1,standing,13,BLUE,congruent,819,1,
8,19,f,1,standing,14,XXXXX,baseline,693,1,
8,19,f,1,standing,15,GREEN,congruent,871,1,
8,19,f,1,standing,16,BLUE,congruent,531,1,
8,19,f,1,standing,17,BROWN,incongruent,792,1,
8,19,f,1,standing,18,RED,congruent,758,1,
8,19,f,1,standing,19,RED,incongruent,"214,",813,1
8,19,f,1,standing,20,BLUE,incongruent,1032,1,
8,19,f,1,standing,21,XXX,baseline,214,1,
8,19,f,1,standing,22,BLUE,congruent,1065,1,
8,19,f,1,standing,23,XXXXX,baseline,663,1,
8,19,f,1,standing,24,BLUE,incongruent,811,1,
8,19,f,1,standing,25,RED,congruent,575,1,
8,19,f,1,standing,26,BROWN,congruent,813,1,
8,19,f,1,standing,27,RED,congruent,635,1,
8,19,f,1,standing,28,GREEN,incongruent,875,1,
8,19,f,1,standing,29,RED,incongruent,250,999,
8,19,f,1,standing,30,GREEN,congruent,200,1,
8,19,f,1,standing,31,XXXXX,baseline,628,1,
8,19,f,1,standing,32,XXXX,baseline,693,1,
8,19,f,1,standing,33,BLUE,incongruent,953,1,
8,19,f,1,standing,34,BLUE,incongruent,755,1,
8,19,f,1,standing,35,BLUE,congruent,709,1,
8,19,f,1,standing,36,RED,congruent,592,1,
8,19,f,1,standing,37,XXXXX,baseline,680,1,
8,19,f,1,standing,38,BROWN,incongruent,869,1,
8,19,f,1,standing,39,XXXXX,baseline,224,1,
8,19,f,1,standing,40,XXXXX,baseline,200,1,
8,19,f,1,standing,41,XXXXX,baseline,906,1,
8,19,f,1,standing,42,BLUE,congruent,810,1,
8,19,f,1,standing,43,XXXX,baseline,674,1,
8,19,f,1,standing,44,BLUE,congruent,652,1,
8,19,f,1,standing,45,RED,congruent,587,1,
8,19,f,1,standing,46,XXXXX,baseline,753,1,
8,19,f,1,standing,47,RED,congruent,748,1,
8,19,f,1,standing,48,RED,incongruent,735,0,
8,19,f,1,standing,49,BLUE,congruent,571,1,
8,19,f,1,standing,50,XXXXX,baseline,537,1,
8,19,f,1,standing,51,BROWN,incongruent,938,1,
8,19,f,1,standing,52,GREEN,incongruent,1140,1,
8,19,f,1,standing,53,GREEN,congruent,787,1,
8,19,f,1,standing,54,BLUE,incongruent,918,1,
8,19,f,1,standing,55,BLUE,incongruent,1004,1,
8,19,f,1,standing,56,RED,congruent,246,999,
8,19,f,1,standing,57,XXXXX,baseline,201,999,
8,19,f,1,standing,58,RED,incongruent,201,999,
8,19,f,1,standing,59,XXXXX,baseline,865,1,
8,19,f,1,standing,60,XXXXX,baseline,819,1,
8,19,f,1,standing,61,GREEN,congruent,866,1,
8,19,f,1,standing,62,XXXXX,baseline,547,1,
8,19,f,1,standing,63,XXX,baseline,816,1,
8,19,f,1,standing,64,XXX,baseline,933,1,
8,19,f,1,standing,65,BLUE,incongruent,1194,1,
8,19,f,1,standing,66,BROWN,incongruent,417,999,
8,19,f,1,standing,67,BROWN,congruent,200,1,
8,19,f,1,standing,68,XXXXX,baseline,783,1,
8,19,f,1,standing,69,XXXXX,baseline,495,1,
8,19,f,1,standing,70,RED,incongruent,1141,1,
8,19,f,1,standing,71,BROWN,congruent,988,1,
8,19,f,1,standing,72,RED,congruent,790,1,
8,19,f,1,standing,73,GREEN,incongruent,1110,1,
8,19,f,1,standing,74,BROWN,incongruent,1050,1,
8,19,f,1,standing,75,XXXX,baseline,654,1,
8,19,f,1,standing,76,XXXXX,baseline,814,1,
8,19,f,1,standing,77,XXXX,baseline,657,1,
8,19,f,1,standing,78,RED,congruent,796,1,
8,19,f,1,standing,79,GREEN,incongruent,1005,1,
8,19,f,1,standing,80,XXXX,baseline,698,1,
8,19,f,1,standing,81,GREEN,incongruent,200,1,
8,19,f,1,standing,82,RED,incongruent,871,1,
8,19,f,1,standing,83,GREEN,incongruent,695,1,
8,19,f,1,standing,84,XXXX,baseline,629,1,
8,19,f,1,standing,85,XXXXX,baseline,675,1,
8,19,f,1,standing,86,BLUE,congruent,1007,1,
8,19,f,1,standing,87,GREEN,congruent,809,1,
8,19,f,1,standing,88,BROWN,incongruent,1018,1,
8,19,f,1,standing,89,RED,congruent,872,1,
8,19,f,1,standing,90,RED,congruent,653,1,
8,19,f,1,standing,91,XXXX,baseline,781,1,
8,19,f,1,standing,92,RED,incongruent,949,1,
8,19,f,1,standing,93,XXXXX,baseline,629,1,
8,19,f,1,standing,94,GREEN,congruent,512,1,
8,19,f,1,standing,95,XXX,baseline,200,999,
8,19,f,1,standing,96,XXXXX,baseline,826,1,
8,19,f,1,standing,97,XXXXX,baseline,776,1,
8,19,f,1,standing,98,GREEN,incongruent,975,1,
8,19,f,1,standing,99,BROWN,incongruent,950,1,
8,19,f,1,standing,100,XXXXX,baseline,794,1,
8,19,f,1,standing,101,BLUE,congruent,839,1,
8,19,f,1,standing,102,BROWN,incongruent,1130,1,
8,19,f,1,standing,103,BROWN,congruent,298,1,
8,19,f,1,standing,104,BROWN,congruent,701,1,
8,19,f,1,standing,105,GREEN,incongruent,572,1,
8,19,f,1,standing,106,RED,incongruent,856,1,
8,19,f,1,standing,107,BROWN,incongruent,293,1,
8,19,f,1,sitting,0,XXXXX,baseline,575,1,
8,19,f,1,sitting,1,RED,incongruent,734,1,
8,19,f,1,sitting,2,BLUE,incongruent,576,1,
8,19,f,1,sitting,3,BROWN,congruent,824,1,
8,19,f,1,sitting,4,GREEN,congruent,694,1,
8,19,f,1,sitting,5,XXX,baseline,750,1,
8,19,f,1,sitting,6,GREEN,congruent,746,1,
8,19,f,1,sitting,7,BROWN,incongruent,213,999,
8,19,f,1,sitting,8,XXX,baseline,704,1,
8,19,f,1,sitting,9,RED,incongruent,254,999,
8,19,f,1,sitting,10,GREEN,congruent,828,1,
8,19,f,1,sitting,11,GREEN,congruent,509,1,
8,19,f,1,sitting,12,XXXXX,baseline,931,1,
8,19,f,1,sitting,13,XXXXX,baseline,716,1,
8,19,f,1,sitting,14,BLUE,congruent,701,1,
8,19,f,1,sitting,15,BROWN,incongruent,259,1,
8,19,f,1,sitting,16,XXXX,baseline,733,1,
8,19,f,1,sitting,17,GREEN,incongruent,1102,1,
8,19,f,1,sitting,18,RED,incongruent,501,1,
8,19,f,1,sitting,19,BROWN,congruent,980,1,
8,19,f,1,sitting,20,XXX,baseline,671,1,
8,19,f,1,sitting,21,XXXXX,baseline,627,1,
8,19,f,1,sitting,22,GREEN,congruent,623,1,
8,19,f,1,sitting,23,XXXXX,baseline,751,1,
8,19,f,1,sitting,24,XXXXX,baseline,734,1,
8,19,f,1,sitting,25,BROWN,incongruent,547,1,
8,19,f,1,sitting,26,BROWN,congruent,572,1,
8,19,f,1,sitting,27,RED,incongruent,751,1,
8,19,f,1,sitting,28,GREEN,congruent,939,1,
8,19,f,1,sitting,29,XXXX,baseline,1015,1,
8,19,f,1,sitting,30,XXXX,baseline,613,1,
8,19,f,1,sitting,31,XXXXX,baseline,810,1,
8,19,f,1,sitting,32,BLUE,incongruent,200,1,
8,19,f,1,sitting,33,XXXX,baseline,743,1,
8,19,f,1,sitting,34,GREEN,incongruent,696,1,
8,19,f,1,sitting,35,RED,incongruent,986,1,
8,19,f,1,sitting,36,GREEN,incongruent,856,1,
8,19,f,1,sitting,37,GREEN,incongruent,365,1,
8,19,f,1,sitting,38,BLUE,congruent,858,1,
8,19,f,1,sitting,39,BROWN,incongruent,1017,1,
8,19,f,1,sitting,40,RED,congruent,594,1,
8,19,f,1,sitting,41,BROWN,incongruent,366,999,
8,19,f,1,sitting,42,XXXXX,baseline,555,1,
8,19,f,1,sitting,43,XXXX,baseline,380,1,
8,19,f,1,sitting,44,RED,incongruent,608,1,
8,19,f,1,sitting,45,XXX,baseline,512,1,
8,19,f,1,sitting,46,RED,incongruent,975,1,
8,19,f,1,sitting,47,RED,congruent,269,999,
8,19,f,1,sitting,48,BLUE,incongruent,200,999,
8,19,f,1,sitting,49,BLUE,congruent,749,1,
8,19,f,1,sitting,50,XXXXX,baseline,673,1,
8,19,f,1,sitting,51,XXX,baseline,781,1,
8,19,f,1,sitting,52,RED,incongruent,421,1,
8,19,f,1,sitting,53,XXXXX,baseline,692,1,
8,19,f,1,sitting,54,GREEN,incongruent,960,1,
8,19,f,1,sitting,55,RED,congruent,201,999,
8,19,f,1,sitting,56,XXXXX,baseline,627,1,
8,19,f,1,sitting,57,RED,incongruent,856,1,
8,19,f,1,sitting,58,BLUE,incongruent,883,1,
8,19,f,1,sitting,59,XXXXX,baseline,310,1,
8,19,f,1,sitting,60,XXX,baseline,743,1,
8,19,f,1,sitting,61,RED,incongruent,635,1,
8,19,f,1,sitting,62,GREEN,congruent,1005,1,
8,19,f,1,sitting,63,BROWN,congruent,837,1,
8,19,f,1,sitting,64,RED,congruent,200,1,
8,19,f,1,sitting,65,XXXXX,baseline,810,1,
8,19,f,1,sitting,66,RED,congruent,702,1,
8,19,f,1,sitting,67,XXXXX,baseline,750,1,
8,19,f,1,sitting,68,XXXX,baseline,757,1,
8,19,f,1,sitting,69,BROWN,congruent,742,1,
8,19,f,1,sitting,70,RED,congruent,614,1,
8,19,f,1,sitting,71,BLUE,congruent,823,1,
8,19,f,1,sitting,72,GREEN,incongruent,462,1,
8,19,f,1,sitting,73,XXXX,baseline,834,1,
8,19,f,1,sitting,74,BROWN,incongruent,770,1,
8,19,f,1,sitting,75,XXXX,baseline,200,1,
8,19,f,1,sitting,76,BLUE,incongruent,414,1,
8,19,f,1,sitting,77,BROWN,congruent,201,1,
8,19,f,1,sitting,78,XXXX,baseline,792,1,
8,19,f,1,sitting,79,BROWN,incongruent,787,1,
8,19,f,1,sitting,80,GREEN,congruent,897,1,
8,19,f,1,sitting,81,BROWN,incongruent,252,1,
8,19,f,1,sitting,82,BLUE,congruent,744,1,
8,19,f,1,sitting,83,BROWN,congruent,770,1,
8,19,f,1,sitting,84,RED,incongruent,634,1,
8,19,f,1,sitting,85,BLUE,incongruent,831,1,
8,19,f,1,sitting,86,BROWN,incongruent,825,1,
8,19,f,1,sitting,87,BLUE,congruent,648,1,
8,19,f,1,sitting,88,RED,incongruent,796,1,
8,19,f,1,sitting,89,BLUE,incongruent,781,1,
8,19,f,1,sitting,90,BROWN,congruent,552,1,
8,19,f,1,sitting,91,BLUE,congruent,711,1,
8,19,f,1,sitting,92,BLUE,congruent,695,1,
8,19,f,1,sitting,93,GREEN,congruent,671,1,
8,19,f,1,sitting,94,XXXXX,baseline,734,1,
8,19,f,1,sitting,95,XXXX,baseline,791,1,
8,19,f,1,sitting,96,RED,incongruent,1029,1,
8,19,f,1,sitting,97,RED,congruent,775,1,
8,19,f,1,sitting,98,RED,incongruent,790,1,
8,19,f,1,sitting,99,BROWN,congruent,715,1,
8,19,f,1,sitting,100,XXXXX,baseline,455,1,
8,19,f,1,sitting,101,BROWN,congruent,624,1,
8,19,f,1,sitting,102,XXXXX,baseline,672,1,
8,19,f,1,sitting,103,XXXXX,baseline,871,1,
8,19,f,1,sitting,104,GREEN,congruent,795,1,
8,19,f,1,sitting,105,XXXX,baseline,647,1,
8,19,f,1,sitting,106,XXXXX,baseline,675,1,
8,19,f,1,sitting,107,BLUE,congruent,285,1,
9,20,f,2,practice,0,XXXXX,baseline,200,999,
9,20,f,2,practice,1,RED,incongruent,200,999,
9,20,f,2,practice,2,RED,incongruent,777,1,
9,20,f,2,practice,3,BLUE,incongruent,994,1,
9,20,f,2,practice,4,XXXX,baseline,1021,1,
9,20,f,2,practice,5,BROWN,congruent,851,1,
9,20,f,2,practice,6,BROWN,incongruent,865,1,
9,20,f,2,practice,7,XXX,baseline,747,1,
9,20,f,2,practice,8,XXXX,baseline,811,1,
9,20,f,2,practice,9,BLUE,incongruent,916,1,
9,20,f,2,practice,10,GREEN,congruent,1152,1,
9,20,f,2,practice,11,XXXXX,baseline,811,1,
9,20,f,2,practice,12,GREEN,incongruent,753,1,
9,20,f,2,practice,13,XXXXX,baseline,797,1,
9,20,f,2,practice,14,BROWN,incongruent,1288,1,
9,20,f,2,practice,15,XXXX,baseline,887,1,
9,20,f,2,practice,16,BROWN,incongruent,840,1,
9,20,f,2,practice,17,BROWN,incongruent,741,1,
9,20,f,2,practice,18,BLUE,incongruent,744,1,
9,20,f,2,practice,19,GREEN,congruent,789,1,
9,20,f,2,practice,20,GREEN,incongruent,771,1,
9,20,f,2,practice,21,BROWN,congruent,713,0,
9,20,f,2,practice,22,GREEN,congruent,1169,1,
9,20,f,2,practice,23,RED,congruent,870,1,
9,20,f,2,practice,24,XXX,baseline,713,1,
9,20,f,2,practice,25,RED,incongruent,1143,1,
9,20,f,2,practice,26,BROWN,congruent,1187,1,
9,20,f,2,practice,27,BLUE,congruent,824,1,
9,20,f,2,practice,28,XXX,baseline,880,1,
9,20,f,2,practice,29,BLUE,congruent,741,1,
9,20,f,2,practice,30,XXXXX,baseline,328,1,
9,20,f,2,practice,31,RED,congruent,839,1,
9,20,f,2,practice,32,BLUE,incongruent,1148,1,
9,20,f,2,practice,33,BROWN,incongruent,1779,1,
9,20,f,2,practice,34,BROWN,incongruent,200,999,
9,20,f,2,practice,35,GREEN,congruent,715,1,
9,20,f,2,practice,36,GREEN,congruent,749,1,
9,20,f,2,practice,37,XXXXX,baseline,733,1,
9,20,f,2,practice,38,XXXXX,baseline,717,1,
9,20,f,2,practice,39,XXXX,baseline,752,1,
9,20,f,2,practice,40,RED,congruent,665,1,
9,20,f,2,practice,41,XXX,baseline,751,1,
9,20,f,2,practice,42,XXX,baseline,1068,1,
9,20,f,2,practice,43,RED,congruent,797,1,
9,20,f,2,practice,44,BLUE,congruent,616,1,
9,20,f,2,practice,45,BROWN,incongruent,873,1,
9,20,f,2,practice,46,XXXXX,baseline,939,1,
9,20,f,2,practice,47,BLUE,congruent,709,1,
9,20,f,2,standing,0,BLUE,incongruent,893,1,
9,20,f,2,standing,1,XXXXX,baseline,674,1,
9,20,f,2,standing,2,RED,congruent,595,1,
9,20,f,2,standing,3,XXXXX,baseline,650,1,
9,20,f,2,standing,4,BLUE,incongruent,785,1,
9,20,f,2,standing,5,BROWN,congruent,596,1,
9,20,f,2,standing,6,RED,incongruent,781,1,
9,20,f,2,standing,7,BROWN,congruent,812,1,
9,20,f,2,standing,8,XXXXX,baseline,796,1,
9,20,f,2,standing,9,BROWN,congruent,617,1,
9,20,f,2,standing,10,XXX,baseline,671,1,
9,20,f,2,standing,11,XXXXX,baseline,838,0,
9,20,f,2,standing,12,XXX,baseline,793,1,
9,20,f,2,standing,13,XXXX,baseline,800,1,
9,20,f,2,standing,14,GREEN,incongruent,693,1,
9,20,f,2,standing,15,XXX,baseline,689,1,
9,20,f,2,standing,16,GREEN,incongruent,1111,1,
9,20,f,2,standing,17,GREEN,congruent,781,1,
9,20,f,2,standing,18,GREEN,congruent,899,1,
9,20,f,2,standing,19,XXXX,baseline,945,1,
9,20,f,2,standing,20,BROWN,incongruent,1185,1,
9,20,f,2,standing,21,RED,incongruent,938,1,
9,20,f,2,standing,22,BROWN,incongruent,843,1,
9,20,f,2,standing,23,GREEN,congruent,715,1,
9,20,f,2,standing,24,BROWN,congruent,1087,1,
9,20,f,2,standing,25,XXXX,baseline,756,1,
9,20,f,2,standing,26,RED,congruent,753,1,
9,20,f,2,standing,27,GREEN,incongruent,758,0,
9,20,f,2,standing,28,GREEN,incongruent,1006,1,
9,20,f,2,standing,29,GREEN,incongruent,992,1,
9,20,f,2,standing,30,XXXX,baseline,1263,1,
9,20,f,2,standing,31,BROWN,congruent,796,1,
9,20,f,2,standing,32,XXXXX,baseline,903,1,
9,20,f,2,standing,33,GREEN,incongruent,1396,1,
9,20,f,2,standing,34,BLUE,congruent,1099,1,
9,20,f,2,standing,35,BLUE,incongruent,789,1,
9,20,f,2,standing,36,BLUE,congruent,835,1,
9,20,f,2,standing,37,XXXX,baseline,707,1,
9,20,f,2,standing,38,XXX,baseline,732,1,
9,20,f,2,standing,39,XXX,baseline,647,1,
9,20,f,2,standing,40,XXX,baseline,643,1,
9,20,f,2,standing,41,XXXXX,baseline,669,1,
9,20,f,2,standing,42,BROWN,incongruent,1011,1,
9,20,f,2,standing,43,BROWN,congruent,754,1,
9,20,f,2,standing,44,XXXXX,baseline,700,1,
9,20,f,2,standing,45,BLUE,incongruent,937,1,
9,20,f,2,standing,46,BLUE,incongruent,689,1,
9,20,f,2,standing,47,BROWN,congruent,879,1,
9,20,f,2,standing,48,XXXXX,baseline,822,1,
9,20,f,2,standing,49,XXX,baseline,1052,1,
9,20,f,2,standing,50,RED,incongruent,793,1,
9,20,f,2,standing,51,XXX,baseline,618,1,
9,20,f,2,standing,52,XXXX,baseline,787,1,
9,20,f,2,standing,53,BROWN,incongruent,1423,1,
9,20,f,2,standing,54,XXXXX,baseline,686,1,
9,20,f,2,standing,55,RED,incongruent,813,1,
9,20,f,2,standing,56,BLUE,incongruent,859,1,
9,20,f,2,standing,57,BROWN,congruent,712,1,
9,20,f,2,standing,58,BLUE,incongruent,1835,1,
9,20,f,2,standing,59,BLUE,congruent,200,1,
9,20,f,2,standing,60,GREEN,congruent,735,1,
9,20,f,2,standing,61,RED,congruent,589,1,
9,20,f,2,standing,62,XXXXX,baseline,737,1,
9,20,f,2,standing,63,BLUE,congruent,701,1,
9,20,f,2,standing,64,BROWN,incongruent,1257,1,
9,20,f,2,standing,65,XXXX,baseline,756,1,
9,20,f,2,standing,66,BLUE,congruent,650,1,
9,20,f,2,standing,67,GREEN,congruent,757,1,
9,20,f,2,standing,68,XXX,baseline,894,1,
9,20,f,2,standing,69,GREEN,incongruent,1264,1,
9,20,f,2,standing,70,BLUE,incongruent,683,0,
9,20,f,2,standing,71,GREEN,incongruent,854,1,
9,20,f,2,standing,72,GREEN,congruent,861,1,
9,20,f,2,standing,73,RED,congruent,623,1,
9,20,f,2,standing,74,GREEN,incongruent,1055,1,
9,20,f,2,standing,75,XXXX,baseline,856,1,
9,20,f,2,standing,76,XXX,baseline,862,1,
9,20,f,2,standing,77,BLUE,congruent,614,1,
9,20,f,2,standing,78,XXXXX,baseline,701,1,
9,20,f,2,standing,79,RED,incongruent,818,1,
9,20,f,2,standing,80,GREEN,congruent,784,1,
9,20,f,2,standing,81,XXXXX,baseline,861,1,
9,20,f,2,standing,82,XXXX,baseline,664,1,
9,20,f,2,standing,83,BLUE,congruent,711,1,
9,20,f,2,standing,84,GREEN,congruent,635,1,
9,20,f,2,standing,85,XXX,baseline,200,999,
9,20,f,2,standing,86,GREEN,incongruent,870,0,
9,20,f,2,standing,87,BROWN,congruent,200,999,
9,20,f,2,standing,88,RED,congruent,779,1,
9,20,f,2,standing,89,XXXXX,baseline,693,1,
9,20,f,2,standing,90,BROWN,incongruent,831,0,
9,20,f,2,standing,91,BROWN,incongruent,948,1,
9,20,f,2,standing,92,RED,congruent,954,1,
9,20,f,2,standing,93,BROWN,congruent,818,0,
9,20,f,2,standing,94,GREEN,incongruent,1006,1,
9,20,f,2,standing,95,BROWN,congruent,856,1,
9,20,f,2,standing,96,BLUE,congruent,1045,1,
9,20,f,2,standing,97,RED,incongruent,200,999,
9,20,f,2,standing,98,RED,incongruent,790,1,
9,20,f,2,standing,99,XXXXX,baseline,826,1,
9,20,f,2,standing,100,BROWN,congruent,764,1,
9,20,f,2,standing,101,XXXX,baseline,717,1,
9,20,f,2,standing,102,RED,incongruent,916,1,
9,20,f,2,standing,103,XXXX,baseline,698,1,
9,20,f,2,standing,104,RED,incongruent,979,1,
9,20,f,2,standing,105,GREEN,congruent,1147,1,
9,20,f,2,standing,106,RED,congruent,735,1,
9,20,f,2,standing,107,BROWN,incongruent,1310,1,
9,20,f,2,sitting,0,GREEN,congruent,592,1,
9,20,f,2,sitting,1,XXXXX,baseline,812,1,
9,20,f,2,sitting,2,RED,incongruent,201,999,
9,20,f,2,sitting,3,XXX,baseline,649,1,
9,20,f,2,sitting,4,XXXXX,baseline,795,1,
9,20,f,2,sitting,5,RED,incongruent,200,999,
9,20,f,2,sitting,6,GREEN,congruent,786,1,
9,20,f,2,sitting,7,XXXX,baseline,754,1,
9,20,f,2,sitting,8,BLUE,congruent,667,1,
9,20,f,2,sitting,9,XXXX,baseline,785,1,
9,20,f,2,sitting,10,RED,incongruent,987,1,
9,20,f,2,sitting,11,XXXXX,baseline,728,1,
9,20,f,2,sitting,12,RED,incongruent,632,1,
9,20,f,2,sitting,13,XXXX,baseline,836,1,
9,20,f,2,sitting,14,BLUE,congruent,771,1,
